File: master_origin_full/pi/sandbox/tf_fitting_rfiles/complete/tmp_tga_debug_Mar_26_2019/TGA_first.prod.dat
# matrix : d no_of_rows: 100000 no_of_cols: 5 REAL
# matrix columns 1 thru 5
 2078 2047 2079 2047 64
 2080 2048 2081 2047 63
 2078 2048 2080 2047 64
 2080 2047 2081 2047 63
 2075 2047 2078 2047 63
 2078 2048 2080 2047 63
 2079 2046 2080 2046 63
 2077 2048 2078 2046 64
 2081 2048 2081 2047 63
 2080 2047 2081 2047 63
 2079 2047 2081 2047 63
 2079 2047 2079 2047 64
 2080 2048 2081 2047 63
 2079 2048 2081 2046 63
 2079 2048 2081 2046 63
 2078 2047 2081 2047 64
 2079 2047 2080 2047 64
 2080 2047 2080 2047 63
 2080 2047 2081 2046 63
 2078 2047 2081 2047 64
 2080 2046 2080 2046 63
 2079 2048 2081 2048 63
 2078 2048 2080 2046 64
 2078 2047 2079 2046 64
 2079 2046 2079 2046 63
 2078 2047 2081 2046 64
 2079 2049 2080 2047 64
 2079 2048 2080 2047 63
 2080 2048 2082 2046 63
 2078 2046 2080 2045 64
 2076 2048 2078 2046 63
 2077 2047 2079 2047 63
 2077 2047 2079 2047 63
 2078 2046 2078 2046 63
 2078 2047 2079 2045 63
 2078 2048 2079 2047 64
 2077 2047 2078 2045 63
 2078 2048 2080 2047 63
 2077 2047 2077 2048 64
 2077 2048 2078 2047 63
 2078 2047 2079 2048 63
 2077 2047 2079 2046 63
 2077 2048 2078 2046 63
 2078 2047 2080 2045 63
 2078 2048 2080 2048 63
 2080 2047 2081 2045 63
 2080 2048 2082 2047 63
 2079 2047 2080 2045 63
 2079 2048 2081 2046 63
 2081 2046 2082 2047 63
 2070 2034 2072 2034 63
 2080 2048 2081 2046 63
 2079 2047 2082 2047 63
 2079 2048 2080 2047 64
 2079 2046 2081 2046 63
 2080 2047 2081 2047 63
 2080 2048 2080 2046 63
 2081 2047 2082 2046 63
 2080 2048 2081 2047 64
 2080 2047 2082 2046 63
 2079 2048 2081 2046 64
 2080 2048 2081 2045 63
 2079 2047 2080 2045 64
 2076 2048 2077 2046 63
 2076 2047 2078 2047 63
 2075 2048 2075 2047 63
 2077 2047 2077 2046 63
 2077 2048 2079 2048 64
 2078 2046 2080 2046 63
 2077 2048 2079 2047 64
 2078 2048 2079 2048 63
 2076 2048 2080 2046 64
 2077 2046 2078 2046 63
 2077 2047 2079 2047 64
 2078 2047 2079 2046 63
 2079 2047 2083 2047 63
 2078 2048 2079 2047 63
 2078 2047 2079 2046 63
 2077 2048 2078 2047 63
 2075 2046 2078 2046 63
 2077 2048 2079 2047 63
 2078 2046 2079 2046 63
 2076 2048 2077 2047 64
 2078 2048 2080 2046 63
 2078 2047 2079 2044 63
 2080 2047 2082 2047 64
 2080 2047 2082 2047 63
 2078 2048 2080 2046 63
 2080 2046 2081 2045 63
 2079 2048 2082 2046 64
 2081 2047 2082 2047 63
 2079 2047 2081 2047 64
 2080 2048 2083 2047 63
 2078 2047 2081 2047 63
 2082 2047 2082 2047 63
 2078 2048 2079 2046 63
 2081 2048 2083 2046 63
 2078 2046 2080 2046 64
 2082 2048 2082 2046 63
 2079 2047 2080 2047 64
 2080 2047 2083 2046 63
 2078 2047 2081 2047 63
 2081 2047 2082 2047 63
 2079 2047 2081 2047 63
 1528 3468 2630 3474 63
 2075 1990 2078 1990 64
 2079 2093 2080 2092 63
 2081 2120 2080 2120 64
 2081 2071 2083 2070 63
 2079 2020 2080 2020 64
 2079 2011 2082 2010 63
 2078 2041 2080 2040 63
 2081 2064 2083 2063 63
 2079 2064 2080 2063 63
 2080 2047 2083 2045 63
 2079 2037 2080 2037 63
 2080 2039 2083 2039 63
 2079 2050 2080 2050 63
 2081 2053 2082 2052 63
 2080 2051 2081 2050 63
 2081 2044 2081 2043 63
 2076 2044 2079 2045 63
 2080 2046 2082 2044 64
 2079 2050 2081 2050 63
 2080 2048 2083 2047 63
 2080 2048 2080 2047 63
 2080 2046 2083 2045 63
 2079 2048 2080 2046 63
 2080 2048 2083 2047 63
 2079 2049 2080 2046 63
 2081 2048 2082 2046 64
 2080 2048 2080 2046 63
 2080 2047 2081 2046 63
 2080 2048 2081 2048 63
 2080 2046 2083 2046 63
 2080 2049 2081 2048 64
 2079 2047 2082 2046 63
 2080 2048 2080 2046 63
 2079 2046 2082 2045 64
 2080 2048 2081 2047 63
 2079 2048 2082 2046 63
 2080 2047 2082 2047 63
 2080 2048 2082 2047 63
 2080 2047 2082 2047 63
 2077 2047 2079 2047 63
 2081 2101 2067 2108 63
 2079 2059 2082 2058 63
 2079 1977 2081 1975 63
 2079 1985 2083 1985 64
 2080 2048 2081 2048 63
 2080 2085 2082 2084 64
 2081 2075 2081 2073 63
 2079 2041 2082 2040 63
 2080 2027 2082 2026 63
 2078 2035 2081 2035 64
 2079 2053 2080 2052 63
 2079 2058 2081 2057 64
 2082 2051 2081 2050 63
 2079 2043 2082 2042 63
 2081 2042 2082 2042 63
 2079 2046 2081 2046 64
 2081 2050 2081 2049 63
 2079 2051 2081 2050 63
 2080 2046 2082 2045 63
 2079 2045 2081 2044 64
 2081 2046 2082 2046 63
 2078 2049 2081 2049 64
 2081 2048 2082 2047 63
 2079 2046 2081 2047 64
 2082 2047 2082 2046 63
 2079 2046 2081 2046 64
 2081 2048 2082 2046 63
 2080 2048 2080 2047 64
 2081 2048 2082 2046 63
 2080 2048 2080 2046 63
 2081 2047 2082 2046 63
 2079 2048 2080 2048 64
 2081 2047 2081 2046 64
 2078 2048 2081 2048 64
 2081 2046 2081 2045 63
 2079 2048 2081 2048 64
 2081 2046 2081 2046 63
 2079 2047 2080 2047 63
 2081 2047 2083 2047 63
 2076 2049 2078 2047 63
 2079 2047 2079 2046 63
 2076 1960 2081 1959 64
 2082 2074 2083 2073 63
 2080 2125 2079 2127 63
 2081 2087 2081 2087 63
 2079 2030 2081 2028 64
 2080 2006 2083 2006 63
 2079 2033 2080 2032 64
 2080 2060 2082 2059 63
 2079 2069 2081 2067 63
 2079 2050 2079 2049 63
 2078 2039 2080 2038 64
 2080 2037 2083 2035 63
 2079 2049 2081 2047 63
 2081 2051 2083 2051 63
 2078 2053 2080 2053 64
 2082 2045 2083 2044 63
 2079 2045 2080 2043 63
 2081 2046 2083 2044 63
 2079 2050 2079 2049 64
 2081 2049 2082 2048 63
 2078 2049 2080 2048 64
 2081 2045 2082 2044 63
 2079 2047 2080 2046 63
 2081 2046 2083 2045 63
 2080 2049 2080 2048 64
 2080 2047 2082 2045 63
 2079 2049 2080 2048 63
 2080 2046 2082 2045 63
 2079 2048 2081 2048 63
 2080 2046 2083 2046 63
 2080 2049 2080 2048 64
 2082 2046 2082 2046 63
 2081 2049 2079 2047 63
 2080 2046 2082 2046 63
 2079 2048 2080 2047 63
 2080 2047 2083 2046 63
 2077 2048 2078 2047 63
 2079 2047 2081 2046 63
 2077 2048 2078 2046 63
 2079 2047 2079 2045 64
 2652 587 1498 585 63
 2081 2086 2082 2084 63
 2079 1991 2082 1990 63
 2079 1975 2082 1973 64
 2080 2034 2080 2032 63
 2080 2079 2081 2077 64
 2081 2082 2080 2080 63
 2081 2048 2082 2048 64
 2079 2029 2082 2028 63
 2079 2031 2083 2030 64
 2081 2051 2079 2049 63
 2079 2058 2082 2056 64
 2080 2054 2080 2053 63
 2080 2044 2082 2042 64
 2080 2042 2081 2041 63
 2079 2044 2082 2043 63
 2080 2051 2081 2049 63
 2080 2050 2082 2049 64
 2082 2049 2080 2049 63
 2079 2045 2081 2044 64
 2081 2046 2081 2046 63
 2079 2046 2082 2046 64
 2080 2049 2081 2047 63
 2079 2047 2082 2046 64
 2080 2047 2081 2046 63
 2079 2046 2082 2046 64
 2079 2047 2082 2046 63
 2079 2047 2082 2046 63
 2080 2048 2081 2046 63
 2079 2048 2081 2047 64
 2077 2047 2078 2047 63
 2080 2047 2081 2046 64
 2081 2048 2081 2047 63
 2079 2049 2081 2046 63
 2081 2048 2082 2046 63
 2079 2047 2081 2046 64
 2081 2048 2082 2047 63
 2075 2048 2078 2046 64
 2078 2048 2080 2046 63
 2077 2048 2078 2046 64
 2081 2047 2083 2047 63
 2074 1941 2080 1939 64
 2082 2051 2081 2050 63
 2080 2124 2080 2123 64
 2082 2101 2080 2101 63
 2079 2041 2082 2039 64
 2080 2008 2081 2007 63
 2079 2026 2081 2025 64
 2081 2056 2082 2055 63
 2079 2069 2081 2067 64
 2081 2056 2082 2055 63
 2079 2041 2080 2038 64
 2081 2036 2081 2035 63
 2079 2045 2080 2044 63
 2081 2052 2082 2051 63
 2078 2053 2080 2053 63
 2082 2047 2082 2046 63
 2079 2045 2081 2045 63
 2081 2044 2082 2045 63
 2079 2049 2080 2049 64
 2081 2048 2082 2047 63
 2079 2049 2081 2047 63
 2080 2046 2082 2044 63
 2079 2047 2080 2046 63
 2080 2046 2082 2046 63
 2079 2049 2080 2049 64
 2082 2046 2082 2046 63
 2078 2048 2080 2047 63
 2081 2047 2084 2047 63
 2080 2049 2080 2046 63
 2081 2045 2083 2046 63
 2080 2048 2080 2046 64
 2080 2047 2084 2046 63
 2080 2048 2081 2048 63
 2082 2045 2082 2045 63
 2079 2049 2081 2048 64
 2081 2047 2083 2046 63
 2078 2048 2079 2048 63
 2079 2046 2082 2045 64
 2078 2048 2079 2048 63
 2080 2047 2082 2045 63
 2462 1548 1689 1493 64
 2082 2112 2081 2112 63
 2079 2007 2082 2006 63
 2080 1969 2084 1969 63
 2078 2019 2081 2017 64
 2082 2072 2081 2072 63
 2080 2085 2079 2085 63
 2081 2055 2083 2054 64
 2079 2031 2081 2030 63
 2081 2028 2083 2027 63
 2079 2046 2081 2046 64
 2081 2056 2082 2055 63
 2079 2057 2080 2056 63
 2081 2045 2082 2043 63
 2080 2042 2082 2042 64
 2081 2042 2082 2041 63
 2078 2051 2080 2050 64
 2081 2049 2082 2048 63
 2079 2050 2082 2049 64
 2083 2044 2082 2043 63
 2079 2047 2081 2045 64
 2082 2047 2083 2046 63
 2080 2049 2081 2048 64
 2081 2048 2083 2046 64
 2078 2047 2081 2046 63
 2081 2046 2083 2044 63
 2080 2048 2081 2047 64
 2082 2047 2082 2046 63
 2079 2048 2082 2048 64
 2081 2047 2083 2046 63
 2079 2048 2081 2046 64
 2081 2046 2082 2044 63
 2080 2048 2081 2047 64
 2081 2048 2083 2046 63
 2080 2049 2081 2047 64
 2082 2047 2082 2045 63
 2079 2047 2081 2046 64
 2082 2046 2082 2046 63
 2077 2049 2080 2046 64
 2080 2048 2081 2047 63
 2078 2048 2079 2046 64
 1515 3469 2641 3435 63
 2080 2024 2081 2023 64
 2082 2114 2083 2112 63
 2081 2115 2081 2114 64
 2082 2052 2083 2051 63
 2079 2012 2081 2011 64
 2080 2017 2083 2015 63
 2080 2051 2081 2050 63
 2081 2067 2083 2066 63
 2079 2061 2079 2060 63
 2081 2042 2083 2040 63
 2079 2036 2082 2036 63
 2082 2042 2083 2042 63
 2079 2052 2080 2051 64
 2081 2053 2083 2053 63
 2079 2048 2079 2048 63
 2080 2043 2084 2043 63
 2078 2044 2081 2043 64
 2081 2047 2083 2047 63
 2080 2049 2081 2049 63
 2080 2049 2081 2047 63
 2080 2047 2081 2045 63
 2081 2045 2083 2046 63
 2081 2048 2080 2046 63
 2080 2047 2082 2048 63
 2081 2047 2080 2048 63
 2081 2046 2082 2047 63
 2080 2046 2080 2047 64
 2080 2047 2083 2047 63
 2080 2046 2081 2045 64
 2081 2048 2083 2048 63
 2079 2047 2081 2047 63
 2081 2048 2082 2047 63
 2080 2046 2081 2044 63
 2081 2049 2083 2048 64
 2081 2048 2080 2047 63
 2081 2047 2083 2047 63
 2080 2046 2082 2046 63
 2080 2048 2082 2046 64
 2079 2047 2079 2046 63
 2079 2048 2081 2046 63
 2080 2139 2078 2138 63
 2079 2025 2082 2025 63
 2088 1974 2090 1974 63
 2080 2004 2083 2003 63
 2081 2063 2082 2062 63
 2081 2088 2082 2087 63
 2080 2063 2082 2061 63
 2080 2036 2083 2035 64
 2080 2025 2081 2025 64
 2080 2043 2082 2042 63
 2081 2055 2082 2054 63
 2081 2059 2082 2057 64
 2082 2047 2081 2046 63
 2078 2042 2082 2041 64
 2082 2042 2081 2040 63
 2079 2050 2082 2049 63
 2082 2051 2082 2049 63
 2080 2050 2081 2048 64
 2081 2045 2082 2044 63
 2079 2047 2082 2045 64
 2082 2046 2082 2045 63
 2079 2049 2082 2048 64
 2081 2047 2082 2046 63
 2081 2049 2082 2049 63
 2080 2044 2081 2044 63
 2080 2048 2082 2046 64
 2082 2046 2082 2046 63
 2079 2049 2082 2047 64
 2082 2046 2082 2046 63
 2080 2049 2081 2048 64
 2082 2047 2083 2047 63
 2079 2048 2081 2047 64
 2082 2047 2082 2047 63
 2080 2048 2081 2047 64
 2081 2047 2083 2046 63
 2079 2048 2081 2046 64
 2081 2046 2082 2045 63
 2079 2048 2082 2047 64
 2081 2047 2082 2046 63
 2077 2048 2079 2048 64
 1502 3525 2657 3526 63
 2077 1999 2080 1998 64
 2082 2100 2080 2099 63
 2079 2123 2079 2121 63
 2082 2066 2083 2065 63
 2079 2017 2082 2016 64
 2081 2011 2084 2011 63
 2079 2045 2080 2044 64
 2082 2066 2083 2066 63
 2079 2065 2080 2064 64
 2081 2045 2083 2044 63
 2080 2037 2081 2036 63
 2081 2039 2083 2037 63
 2079 2051 2082 2050 63
 2081 2053 2083 2052 63
 2081 2051 2080 2051 63
 2081 2044 2083 2043 63
 2079 2044 2081 2043 63
 2080 2045 2082 2045 63
 2078 2050 2082 2049 63
 2082 2048 2082 2046 63
 2080 2048 2081 2047 63
 2082 2046 2083 2044 63
 2079 2047 2081 2047 63
 2082 2048 2082 2047 63
 2079 2047 2080 2047 63
 2080 2048 2083 2046 63
 2079 2048 2080 2048 63
 2082 2047 2083 2046 64
 2080 2048 2080 2046 64
 2080 2047 2083 2046 63
 2080 2048 2081 2048 63
 2082 2047 2082 2046 64
 2079 2048 2081 2048 64
 2080 2047 2083 2045 63
 2079 2049 2081 2046 64
 2080 2048 2083 2046 63
 2079 2048 2081 2047 63
 2082 2047 2082 2047 63
 2080 2048 2081 2047 64
 2080 2048 2083 2047 64
 2078 2156 2075 2155 64
 2080 2050 2082 2049 64
 2077 1974 2080 1973 63
 2078 1990 2082 1989 63
 2080 2053 2081 2051 64
 2081 2085 2083 2085 64
 2080 2071 2080 2070 63
 2079 2040 2082 2038 63
 2079 2026 2082 2025 63
 2081 2037 2082 2036 63
 2080 2054 2081 2053 63
 2081 2058 2082 2058 64
 2080 2050 2081 2048 63
 2081 2043 2082 2042 64
 2081 2041 2081 2040 63
 2081 2047 2082 2047 63
 2080 2051 2081 2050 63
 2081 2050 2083 2050 64
 2080 2045 2080 2045 63
 2080 2046 2082 2044 64
 2081 2047 2081 2045 64
 1886 2489 2276 2488 63
 1887 2482 2274 2483 63
 1888 2537 2276 2537 63
 1888 2582 2274 2582 63
 1888 2586 2274 2586 63
 1889 2558 2274 2558 63
 1887 2537 2274 2538 63
 1888 2539 2274 2538 63
 1888 2554 2274 2555 64
 1888 2564 2272 2564 63
 1888 2562 2274 2562 64
 1888 2553 2275 2554 63
 1887 2550 2275 2550 64
 1888 2552 2274 2551 63
 1888 2558 2274 2557 64
 1888 2556 2275 2557 63
 1887 2557 2274 2557 64
 1888 2554 2275 2554 63
 1887 2555 2274 2554 64
 1889 2555 2275 2555 63
 1886 2556 2273 2557 64
 1888 2556 2274 2556 63
 1886 2556 2272 2556 64
 1888 2554 2272 2554 63
 1886 2556 2273 2555 64
 1889 2556 2275 2555 63
 1887 2557 2274 2557 64
 1888 2555 2275 2556 63
 1887 2556 2274 2556 64
 1889 2554 2275 2555 63
 1887 2557 2274 2557 64
 1888 2555 2273 2555 63
 1887 2556 2274 2556 64
 1890 2554 2274 2555 64
 1887 2558 2275 2557 64
 1889 2556 2274 2555 63
 1886 2556 2274 2556 64
 1889 2556 2276 2555 63
 1887 2555 2273 2555 63
 1889 2556 2275 2557 63
 1887 2555 2272 2556 64
 1888 2556 2276 2556 63
 1888 2556 2273 2556 64
 1888 2556 2275 2556 63
 1886 2556 2274 2557 64
 1889 2556 2275 2555 63
 1887 2557 2273 2556 64
 1889 2555 2275 2555 63
 1887 2557 2274 2556 63
 1888 2556 2275 2555 63
 1886 2557 2274 2556 64
 1889 2557 2276 2556 63
 1887 2556 2273 2556 64
 1889 2556 2275 2556 63
 1887 2556 2273 2556 64
 1890 2556 2275 2557 63
 1887 2555 2273 2555 64
 1889 2556 2276 2556 63
 1887 2556 2274 2555 64
 1889 2556 2275 2555 63
 1888 2556 2273 2556 64
 1890 2556 2275 2556 63
 1887 2556 2272 2556 63
 1888 2556 2274 2555 63
 1885 2556 2273 2556 63
 1887 2556 2273 2556 63
 1886 2556 2273 2556 64
 1889 2556 2275 2556 63
 1887 2555 2274 2556 63
 1888 2556 2276 2556 63
 1887 2556 2273 2556 63
 1890 2556 2275 2557 63
 1887 2556 2273 2555 63
 1889 2557 2276 2556 63
 1887 2556 2273 2556 63
 1888 2557 2274 2555 63
 1887 2556 2274 2556 64
 1889 2557 2276 2556 64
 1889 2557 2273 2557 63
 1888 2556 2275 2556 63
 1888 2556 2273 2557 63
 2272 1644 1888 1643 63
 2274 1700 1885 1700 63
 2273 1613 1888 1611 63
 2271 1511 1888 1508 64
 2270 1481 1890 1479 64
 2271 1517 1887 1516 63
 2272 1566 1889 1565 64
 2272 1573 1887 1572 63
 2272 1552 1889 1551 63
 2270 1528 1888 1527 63
 2272 1528 1890 1526 63
 2271 1538 1887 1538 64
 2273 1549 1889 1548 63
 2271 1548 1887 1546 64
 2273 1540 1888 1539 63
 2271 1536 1887 1536 63
 2272 1538 1889 1537 63
 2271 1541 1886 1541 64
 2272 1542 1889 1542 63
 2271 1541 1888 1539 64
 2272 1540 1889 1538 63
 2271 1539 1887 1538 63
 2272 1541 1890 1539 63
 2269 1541 1886 1540 64
 2271 1542 1887 1539 63
 2269 1540 1886 1537 63
 2272 1540 1889 1539 63
 2270 1540 1886 1537 63
 2270 1540 1888 1538 63
 2271 1539 1888 1538 63
 2273 1541 1889 1539 64
 2272 1540 1887 1538 64
 2272 1540 1889 1538 63
 2272 1540 1887 1539 63
 2272 1539 1888 1538 63
 2270 1540 1888 1539 64
 2273 1539 1888 1539 63
 2271 1539 1887 1539 63
 2272 1539 1890 1538 63
 2270 1540 1886 1538 64
 2273 1539 1889 1538 63
 2270 1539 1887 1538 63
 2273 1540 1889 1538 63
 2270 1538 1887 1538 64
 2272 1539 1889 1539 63
 2270 1540 1888 1538 63
 2272 1540 1889 1537 63
 2271 1540 1888 1537 64
 2272 1539 1889 1537 64
 2272 1540 1888 1537 63
 2272 1538 1888 1538 64
 2272 1539 1887 1537 63
 2272 1539 1889 1538 63
 2272 1539 1888 1538 64
 2271 1538 1888 1538 63
 2271 1539 1888 1537 64
 2271 1540 1889 1537 64
 2271 1539 1888 1538 63
 2271 1539 1889 1538 64
 2271 1539 1887 1537 63
 2272 1539 1889 1537 64
 2272 1539 1888 1537 63
 2275 1543 1891 1541 64
 2272 1539 1888 1537 63
 2272 1539 1889 1537 63
 2270 1540 1887 1537 63
 2270 1540 1887 1538 63
 2271 1540 1886 1537 63
 2270 1539 1887 1537 63
 2271 1540 1887 1538 63
 2271 1538 1889 1537 64
 2273 1538 1888 1537 63
 2271 1539 1889 1537 63
 2271 1540 1886 1538 63
 2271 1539 1888 1537 64
 2272 1538 1888 1537 63
 2271 1539 1888 1538 63
 2273 1539 1888 1536 63
 2271 1538 1887 1537 64
 2273 1539 1888 1537 63
 2270 1539 1888 1538 63
 1888 2479 2275 2479 63
 1887 2507 2274 2505 63
 1887 2498 2276 2497 63
 1887 2569 2273 2569 64
 1889 2586 2274 2587 63
 1888 2570 2273 2569 64
 1888 2543 2276 2545 63
 1887 2537 2273 2537 64
 1889 2548 2274 2547 63
 1887 2562 2274 2561 63
 1890 2562 2273 2563 63
 1887 2557 2274 2556 64
 1889 2550 2274 2550 63
 1888 2552 2274 2552 63
 1889 2555 2275 2556 63
 1887 2558 2272 2557 64
 1890 2557 2275 2556 63
 1887 2555 2273 2554 64
 1889 2553 2275 2553 63
 1888 2554 2272 2554 64
 1889 2556 2275 2555 63
 1886 2555 2273 2555 64
 1889 2555 2275 2554 63
 1887 2555 2274 2555 64
 1889 2554 2275 2554 63
 1888 2556 2273 2556 64
 1887 2555 2274 2555 63
 1885 2556 2272 2556 64
 1889 2555 2273 2555 63
 1887 2555 2271 2555 64
 1888 2555 2274 2555 63
 1887 2555 2274 2556 63
 1889 2556 2275 2556 63
 1887 2555 2273 2556 64
 1889 2556 2275 2556 63
 1887 2555 2273 2555 64
 1890 2556 2275 2555 63
 1887 2554 2271 2555 63
 1890 2556 2275 2556 63
 1888 2555 2273 2555 63
 1890 2555 2274 2555 63
 1887 2556 2273 2555 64
 1889 2556 2275 2556 63
 1887 2556 2273 2556 64
 1889 2555 2274 2555 63
 1888 2555 2273 2555 63
 1890 2556 2274 2555 63
 1887 2556 2273 2556 63
 1891 2555 2274 2556 63
 1886 2556 2272 2557 63
 1890 2556 2275 2555 63
 1887 2555 2272 2554 63
 1889 2556 2275 2556 63
 1888 2555 2272 2556 63
 1890 2556 2275 2556 63
 1888 2555 2273 2556 63
 1888 2556 2275 2556 63
 1888 2555 2272 2556 63
 1888 2555 2275 2555 63
 1888 2556 2273 2556 63
 1888 2555 2275 2555 63
 1888 2556 2273 2556 63
 1889 2555 2275 2556 63
 1888 2556 2273 2556 64
 1888 2556 2275 2556 64
 1888 2556 2273 2555 63
 1889 2556 2275 2556 64
 1887 2555 2272 2555 63
 1887 2555 2274 2556 63
 1887 2555 2271 2555 63
 1888 2556 2273 2555 63
 1886 2554 2272 2555 63
 1888 2556 2274 2555 63
 1888 2556 2274 2556 63
 1889 2556 2274 2556 63
 1887 2555 2274 2556 63
 1888 2556 2275 2555 63
 1888 2556 2273 2556 63
 1888 2556 2274 2555 64
 1889 2556 2273 2556 63
 1889 2557 2274 2556 63
 2273 1585 1888 1584 63
 2271 1512 1890 1511 63
 2273 1545 1887 1543 63
 2272 1541 1890 1539 63
 2272 1533 1888 1531 63
 2271 1550 1889 1548 63
 2272 1528 1888 1526 63
 2272 1548 1889 1546 63
 2272 1531 1888 1529 63
 2270 1547 1888 1545 64
 2280 1540 1896 1538 63
 2271 1542 1889 1541 63
 2273 1537 1889 1535 63
 2270 1543 1887 1543 64
 2273 1539 1889 1538 63
 2270 1539 1889 1537 63
 2273 1539 1889 1538 63
 2271 1539 1889 1538 64
 2272 1539 1889 1537 63
 2271 1539 1888 1538 64
 2271 1539 1888 1537 63
 2270 1539 1887 1537 63
 2272 1539 1889 1537 63
 2271 1539 1889 1537 63
 2272 1539 1889 1537 63
 2271 1539 1888 1537 64
 2272 1539 1889 1537 63
 2270 1539 1888 1537 63
 2272 1539 1890 1537 63
 2270 1540 1886 1537 63
 2273 1540 1887 1537 63
 2269 1538 1887 1537 64
 2271 1539 1889 1538 63
 2270 1540 1888 1537 64
 2273 1539 1889 1537 63
 2270 1539 1888 1538 63
 2273 1539 1889 1537 63
 2270 1539 1888 1538 64
 2271 1539 1888 1538 63
 2272 1539 1889 1538 63
 2271 1538 1888 1536 63
 2273 1540 1889 1538 63
 2272 1539 1888 1539 64
 2271 1538 1888 1538 63
 2271 1539 1888 1537 63
 2272 1538 1889 1538 63
 2271 1539 1888 1537 64
 2272 1539 1889 1537 63
 2270 1539 1889 1538 63
 2273 1539 1889 1538 63
 2270 1539 1889 1538 64
 2273 1540 1889 1537 63
 2270 1539 1889 1537 64
 2272 1539 1890 1538 63
 2270 1539 1887 1537 64
 2273 1540 1889 1538 63
 2270 1539 1887 1538 64
 2273 1539 1889 1538 63
 2271 1539 1888 1538 64
 2272 1539 1890 1536 63
 2271 1539 1888 1538 63
 2272 1539 1890 1538 63
 2271 1540 1889 1538 63
 2273 1538 1889 1536 63
 2271 1539 1887 1537 63
 2272 1539 1888 1537 63
 2271 1539 1888 1538 63
 2273 1539 1890 1538 63
 2271 1539 1888 1537 63
 2273 1539 1890 1538 63
 2271 1539 1887 1538 63
 2271 1539 1888 1538 63
 2268 1539 1887 1537 63
 2270 1540 1888 1538 63
 2270 1539 1886 1537 63
 2273 1539 1889 1538 63
 2271 1539 1888 1537 63
 2272 1539 1888 1538 63
 2271 1539 1888 1538 64
 2273 1539 1889 1538 63
 2270 1539 1888 1538 63
 2272 1537 1890 1538 63
 2080 2026 2082 2025 63
 2081 2069 2083 2070 63
 2079 2029 2082 2028 63
 2082 2063 2083 2062 63
 2080 2035 2080 2035 64
 2082 2056 2083 2055 63
 2074 2039 2075 2038 63
 2081 2050 2084 2050 63
 2080 2046 2080 2045 63
 2082 2047 2083 2046 63
 2079 2047 2081 2047 63
 2081 2047 2083 2046 63
 2080 2048 2081 2046 63
 2080 2047 2083 2047 63
 2080 2048 2081 2046 63
 2081 2048 2082 2047 63
 2080 2048 2081 2046 63
 2081 2048 2083 2046 63
 2079 2047 2081 2047 63
 2082 2047 2083 2047 63
 2080 2047 2081 2046 64
 2080 2048 2084 2047 63
 2079 2047 2082 2047 63
 2082 2048 2082 2047 63
 2081 2046 2080 2046 63
 2082 2048 2082 2047 63
 2080 2047 2081 2047 63
 2081 2047 2083 2046 63
 2080 2048 2081 2047 63
 2082 2047 2082 2046 63
 2079 2048 2079 2046 63
 2079 2048 2082 2046 63
 2080 2048 2080 2047 63
 2079 2048 2081 2046 63
 2080 2048 2080 2047 63
 2081 2047 2083 2047 64
 2082 2047 2081 2047 63
 2081 2048 2082 2047 63
 2080 2047 2082 2046 63
 2081 2048 2083 2046 63
 2079 2047 2081 2046 63
 2081 2048 2083 2045 64
 2081 2048 2081 2046 63
 2081 2047 2082 2046 63
 2080 2046 2082 2046 63
 2081 2047 2082 2047 63
 2081 2048 2082 2046 63
 2080 2048 2082 2046 63
 2081 2047 2082 2047 63
 2080 2048 2082 2047 63
 2082 2048 2081 2046 63
 2079 2048 2083 2047 63
 2082 2047 2082 2047 63
 2080 2048 2082 2046 63
 2082 2047 2081 2046 63
 2080 2047 2082 2047 64
 2081 2048 2082 2046 63
 2080 2047 2082 2047 64
 2081 2046 2081 2046 63
 2080 2048 2083 2046 64
 2081 2048 2082 2046 63
 2080 2048 2082 2047 64
 2082 2047 2081 2046 63
 2079 2047 2081 2046 64
 2082 2047 2082 2047 63
 2079 2047 2081 2046 64
 2082 2047 2082 2047 63
 2080 2048 2081 2046 63
 2081 2047 2083 2046 63
 2080 2047 2081 2045 64
 2081 2047 2082 2047 63
 2080 2047 2081 2047 64
 2080 2047 2081 2046 63
 2079 2047 2080 2046 63
 2080 2048 2081 2045 63
 2079 2048 2080 2046 64
 2081 2047 2083 2047 63
 2078 2047 2081 2046 64
 2083 2048 2083 2047 63
 2079 2047 2081 2045 63
 2082 2047 2083 2047 63
 2079 2047 2081 2046 64
 2081 2048 2083 2048 63
 2077 2046 2080 2045 63
 2080 2048 2082 2046 63
 2078 2048 2080 2047 63
 2080 2047 2082 2047 63
 2078 2046 2078 2046 63
 2080 2047 2081 2046 63
 2077 2048 2079 2048 64
 2080 2047 2082 2048 63
 2078 2048 2080 2045 64
 2080 2048 2082 2048 63
 2078 2048 2079 2046 64
 2079 2048 2081 2045 63
 2079 2047 2080 2045 63
 2082 2048 2081 2048 63
 2079 2047 2079 2046 64
 2081 2048 2082 2046 63
 2077 2048 2080 2045 64
 2079 2048 2080 2047 63
 2077 2048 2078 2047 63
 2078 2047 2080 2046 63
 2077 2049 2078 2047 64
 2078 2047 2079 2046 63
 2077 2048 2078 2048 64
 2081 2047 2082 2046 63
 2078 2048 2079 2047 63
 2081 2047 2082 2046 63
 2080 2047 2081 2046 63
 2081 2048 2083 2046 63
 2080 2047 2081 2046 63
 2082 2048 2083 2046 63
 2080 2047 2080 2046 63
 2080 2048 2082 2046 63
 2079 2047 2079 2046 63
 2080 2047 2081 2047 63
 2079 2047 2080 2046 63
 2082 2048 2083 2047 63
 2080 2047 2082 2047 63
 2081 2047 2084 2046 63
 2080 2047 2081 2046 63
 2082 2048 2083 2047 63
 2080 2048 2081 2047 63
 2081 2048 2083 2046 63
 2080 2048 2081 2046 63
 2081 2048 2083 2047 63
 2080 2047 2081 2046 63
 2081 2048 2083 2047 63
 2081 2048 2081 2046 63
 2081 2047 2083 2047 63
 2080 2047 2080 2047 63
 2080 2048 2083 2047 63
 2081 2048 2081 2046 63
 2081 2047 2084 2047 63
 2081 2047 2081 2047 63
 2080 2047 2083 2046 63
 2080 2047 2082 2046 63
 2080 2048 2083 2047 63
 2081 2048 2082 2047 63
 2080 2048 2082 2045 63
 2081 2047 2081 2047 63
 2081 2048 2082 2046 63
 2081 2047 2082 2046 63
 2081 2048 2082 2046 64
 2080 2047 2082 2047 63
 2080 2048 2082 2047 63
 2082 2047 2082 2047 63
 2080 2048 2082 2047 64
 2081 2047 2081 2046 63
 2080 2048 2082 2047 63
 2092 2057 2092 2056 63
 2081 2046 2081 2047 63
 2081 2046 2082 2047 63
 2080 2047 2083 2047 64
 2080 2048 2081 2047 63
 2079 2046 2080 2046 63
 2080 2047 2081 2046 63
 2078 2047 2081 2046 63
 2080 2047 2082 2045 63
 2080 2048 2082 2047 64
 2082 2047 2082 2046 63
 2080 2047 2081 2046 63
 2082 2047 2082 2047 63
 2080 2048 2082 2046 63
 2081 2047 2082 2047 63
 2080 2048 2081 2046 63
 2082 2047 2082 2046 63
 2080 2047 2081 2047 64
 2082 2047 2083 2047 63
 2080 2048 2082 2046 64
 2081 2047 2082 2046 63
 2080 2048 2081 2046 64
 2081 2047 2083 2047 63
 2079 2047 2081 2046 63
 2082 2048 2082 2046 63
 2080 2048 2081 2047 63
 2082 2047 2083 2047 63
 2080 2047 2081 2047 64
 2082 2048 2083 2048 63
 2080 2048 2081 2047 64
 2081 2047 2083 2046 63
 2080 2047 2081 2047 64
 2081 2048 2083 2047 63
 2079 2047 2082 2047 64
 2083 2048 2082 2048 63
 2079 2047 2082 2047 63
 2081 2047 2083 2047 63
 2079 2047 2081 2046 64
 2082 2048 2083 2047 63
 2078 2047 2081 2047 63
 2082 2048 2083 2047 63
 2080 2048 2081 2047 63
 2082 2047 2084 2047 63
 2079 2048 2081 2046 63
 2082 2047 2083 2046 63
 2080 2048 2080 2047 63
 2079 2047 2081 2046 63
 2078 2047 2080 2047 63
 2080 2046 2080 2045 63
 2078 2048 2080 2046 63
 2081 2048 2082 2046 63
 2080 2047 2081 2047 63
 2082 2047 2083 2047 63
 2076 2047 2077 2046 63
 2079 2048 2081 2046 63
 2076 2047 2077 2045 63
 2080 2048 2081 2047 63
 2076 2046 2077 2045 63
 2078 2048 2080 2048 63
 2080 2047 2081 2047 63
 2078 2047 2081 2047 63
 2079 2047 2081 2047 63
 2081 2046 2082 2046 63
 2078 2048 2080 2047 63
 2080 2048 2082 2048 63
 2079 2047 2080 2046 63
 2081 2048 2082 2046 63
 2080 2048 2081 2046 63
 2079 2047 2080 2046 63
 2080 2048 2081 2046 63
 2079 2048 2082 2047 63
 2080 2047 2081 2046 63
 2079 2047 2080 2046 64
 2079 2048 2081 2046 63
 2080 2048 2081 2047 64
 2080 2047 2082 2047 63
 2079 2048 2082 2047 64
 2080 2048 2079 2046 63
 2079 2047 2082 2047 64
 2082 2048 2081 2046 63
 2079 2047 2081 2046 63
 2082 2048 2082 2047 63
 2080 2048 2080 2047 63
 2081 2048 2081 2046 63
 2078 2048 2079 2046 64
 2081 2047 2082 2047 63
 2080 2048 2081 2047 64
 2080 2047 2082 2046 63
 2078 2048 2080 2047 63
 2079 2048 2080 2046 63
 2078 2048 2079 2047 63
 2080 2048 2080 2046 63
 2076 2048 2076 2046 64
 2081 2048 2083 2046 63
 2079 2047 2082 2047 64
 2082 2047 2081 2047 63
 2079 2047 2081 2046 64
 2081 2047 2082 2047 63
 2079 2047 2080 2047 64
 2082 2047 2082 2045 63
 2079 2048 2080 2046 63
 2081 2048 2083 2047 63
 2079 2048 2081 2046 64
 2081 2047 2082 2046 63
 2079 2048 2081 2047 64
 2081 2047 2082 2046 63
 2079 2048 2081 2047 64
 2081 2048 2081 2046 63
 2075 2048 2077 2047 63
 2080 2048 2083 2048 63
 2079 2048 2081 2047 64
 2081 2047 2083 2046 63
 2079 2048 2081 2046 63
 2081 2046 2083 2046 63
 2079 2048 2079 2046 63
 2081 2048 2083 2047 63
 2074 2047 2076 2046 63
 2082 2047 2082 2046 63
 2080 2048 2080 2047 63
 2081 2048 2082 2046 63
 2078 2048 2081 2047 63
 2082 2047 2082 2046 63
 2080 2048 2080 2047 63
 2081 2046 2082 2046 63
 2077 2048 2078 2046 64
 2080 2046 2082 2047 63
 2080 2047 2081 2047 63
 2082 2048 2082 2047 63
 2079 2049 2080 2046 63
 2079 2048 2082 2047 63
 2078 2047 2079 2046 64
 2080 2048 2081 2047 63
 2074 2048 2074 2046 63
 2081 2048 2081 2046 63
 2080 2048 2080 2046 63
 2081 2048 2083 2046 63
 2080 2048 2080 2047 64
 2080 2047 2083 2047 63
 2080 2047 2081 2047 63
 2081 2047 2081 2046 63
 2078 2048 2079 2046 63
 2080 2048 2082 2045 63
 2080 2047 2081 2045 63
 2081 2047 2082 2045 63
 2080 2047 2081 2047 63
 2081 2048 2082 2046 63
 2079 2047 2081 2046 63
 2081 2048 2083 2047 63
 2075 2047 2076 2046 64
 2080 2047 2083 2047 63
 2080 2046 2080 2045 63
 2080 2047 2083 2046 63
 2080 2047 2080 2046 63
 2080 2047 2082 2046 63
 2081 2048 2080 2047 63
 2079 2046 2082 2046 63
 2080 2048 2080 2046 63
 2078 2047 2080 2046 63
 2080 2048 2081 2046 63
 2080 2047 2082 2046 64
 2081 2047 2080 2047 63
 2081 2047 2081 2047 64
 2080 2048 2081 2046 63
 2080 2048 2081 2047 64
 2080 2047 2081 2047 63
 2078 2048 2080 2048 64
 2080 2048 2080 2046 63
 2080 2047 2082 2047 64
 2081 2047 2081 2047 63
 2080 2047 2082 2047 63
 2080 2048 2081 2047 63
 2079 2046 2079 2047 63
 2079 2047 2080 2046 63
 2077 2048 2080 2046 64
 2077 2047 2079 2047 63
 2078 2048 2081 2046 63
 2081 2048 2082 2047 63
 2079 2048 2082 2047 64
 2081 2047 2082 2047 63
 2079 2046 2081 2046 64
 2080 2047 2081 2045 63
 2079 2048 2082 2048 64
 2081 2047 2081 2046 63
 2079 2048 2081 2046 63
 2080 2048 2081 2048 63
 2079 2047 2081 2046 63
 2080 2046 2081 2046 63
 2076 2047 2076 2047 64
 2081 2048 2083 2046 63
 2079 2048 2081 2046 64
 2081 2048 2081 2046 63
 2079 2047 2080 2046 64
 2082 2047 2081 2047 63
 2075 2047 2077 2047 64
 2081 2047 2082 2046 63
 2078 2048 2081 2047 63
 2081 2047 2082 2046 63
 2079 2048 2081 2046 64
 2081 2048 2082 2046 63
 2079 2046 2081 2047 63
 2080 2047 2083 2046 63
 2079 2047 2081 2046 64
 2080 2047 2082 2046 63
 2078 2047 2081 2046 64
 2081 2047 2083 2046 63
 2079 2048 2080 2046 64
 2080 2047 2080 2047 63
 2079 2047 2081 2046 64
 2081 2047 2082 2046 63
 2079 2047 2080 2046 64
 2081 2048 2082 2047 63
 2078 2048 2081 2046 63
 2081 2047 2082 2046 63
 2078 2048 2079 2047 64
 2077 2047 2077 2046 63
 2078 2046 2079 2047 64
 2080 2046 2081 2047 63
 2079 2046 2081 2045 64
 2082 2048 2082 2046 63
 2079 2047 2081 2047 63
 2082 2048 2082 2047 63
 2079 2047 2080 2046 63
 2079 2048 2082 2047 63
 2078 2047 2080 2047 63
 2080 2048 2083 2046 63
 2079 2048 2080 2046 64
 2082 2048 2082 2046 63
 2080 2047 2080 2047 63
 2081 2047 2083 2046 63
 2079 2048 2080 2046 64
 2081 2046 2082 2047 63
 2077 2048 2079 2047 63
 2081 2048 2083 2047 63
 2079 2047 2080 2047 64
 2080 2048 2083 2048 63
 2080 2047 2081 2047 64
 2081 2048 2083 2047 63
 2079 2047 2080 2048 64
 2079 2047 2079 2047 63
 2079 2047 2080 2046 63
 2081 2048 2083 2046 63
 2079 2048 2080 2047 63
 2080 2048 2083 2048 63
 2081 2048 2080 2046 63
 2080 2047 2082 2045 63
 2078 2047 2078 2047 63
 2081 2047 2081 2047 63
 2081 2048 2081 2046 63
 2080 2048 2083 2045 63
 2080 2048 2081 2046 63
 2081 2047 2081 2046 63
 2081 2047 2081 2046 63
 2080 2048 2083 2047 63
 2081 2047 2080 2046 63
 2075 2047 2077 2047 63
 2079 2046 2079 2046 63
 2080 2048 2080 2047 63
 2078 2048 2080 2046 63
 2080 2047 2082 2047 63
 2080 2048 2081 2047 63
 2080 2047 2082 2048 64
 2078 2048 2079 2046 63
 2079 2047 2082 2045 63
 2081 2048 2081 2046 63
 2080 2046 2081 2046 63
 2081 2046 2081 2046 63
 2080 2048 2081 2047 63
 2080 2047 2081 2047 63
 2080 2047 2082 2045 64
 2081 2048 2081 2046 63
 2080 2047 2081 2047 63
 2082 2047 2081 2046 63
 2079 2047 2079 2047 63
 2080 2047 2081 2046 63
 2078 2048 2081 2046 64
 2080 2047 2080 2046 63
 2079 2047 2081 2046 63
 2080 2047 2081 2046 63
 2079 2047 2082 2047 63
 2081 2048 2083 2046 63
 2079 2049 2082 2046 63
 2082 2048 2082 2047 63
 2080 2046 2081 2046 63
 2082 2048 2082 2047 63
 2080 2048 2081 2047 64
 2082 2048 2082 2047 63
 2079 2047 2082 2047 64
 2082 2047 2082 2046 63
 2079 2048 2082 2047 63
 2082 2048 2082 2045 63
 2079 2048 2082 2047 64
 2082 2047 2082 2046 63
 2080 2047 2082 2046 63
 2082 2047 2083 2046 63
 2080 2048 2081 2046 64
 2082 2048 2083 2046 63
 2078 2047 2080 2047 64
 2081 2048 2081 2047 63
 2078 2046 2078 2046 64
 2081 2048 2081 2046 63
 2080 2047 2081 2047 63
 2081 2047 2083 2046 63
 2080 2047 2081 2046 64
 2081 2046 2083 2046 63
 2081 2047 2081 2047 63
 2082 2047 2082 2046 63
 2080 2047 2081 2047 63
 2080 2047 2084 2046 63
 2081 2048 2081 2047 63
 2081 2048 2083 2046 63
 2079 2048 2081 2046 64
 2083 2048 2083 2047 63
 2080 2047 2081 2046 63
 2082 2048 2083 2046 63
 2081 2047 2079 2046 63
 2082 2048 2083 2047 63
 2079 2046 2081 2047 64
 2082 2048 2083 2046 63
 2079 2047 2081 2048 63
 2082 2047 2083 2046 63
 2080 2048 2081 2048 63
 2082 2047 2083 2046 63
 2080 2047 2081 2047 63
 2080 2048 2083 2046 63
 2080 2048 2081 2046 63
 2081 2047 2083 2047 63
 2080 2047 2081 2047 64
 2081 2047 2083 2046 63
 2080 2047 2081 2046 63
 2082 2047 2083 2047 63
 2079 2047 2081 2047 63
 2082 2048 2083 2047 63
 2080 2047 2080 2046 63
 2082 2048 2083 2047 63
 2080 2046 2081 2047 63
 2082 2047 2082 2047 63
 2080 2047 2081 2046 63
 2081 2048 2081 2047 63
 2079 2049 2079 2047 63
 2080 2047 2081 2046 63
 2079 2048 2080 2047 63
 2079 2048 2083 2046 63
 2080 2048 2082 2046 63
 2082 2048 2082 2046 63
 2080 2047 2081 2046 63
 2081 2048 2083 2047 63
 2080 2047 2081 2046 63
 2081 2047 2083 2047 63
 2079 2048 2079 2045 63
 2082 2048 2082 2047 63
 2080 2048 2081 2046 63
 2080 2048 2083 2047 63
 2081 2048 2080 2046 63
 2081 2047 2082 2047 63
 2081 2047 2081 2046 63
 2081 2048 2082 2046 63
 2080 2047 2082 2047 63
 2080 2046 2083 2046 63
 2080 2047 2082 2047 63
 2080 2048 2082 2046 63
 2082 2047 2081 2047 63
 2081 2048 2082 2046 63
 2081 2047 2082 2047 63
 2080 2048 2083 2046 63
 2080 2047 2081 2046 63
 2081 2048 2082 2047 64
 2080 2046 2081 2046 63
 2080 2047 2083 2046 63
 2081 2048 2082 2046 63
 2081 2047 2082 2046 63
 2081 2047 2082 2046 63
 2081 2047 2081 2045 64
 2081 2047 2082 2047 63
 2079 2046 2082 2045 63
 2081 2048 2082 2047 63
 2080 2048 2082 2046 63
 2081 2047 2082 2046 63
 2080 2047 2081 2045 64
 2081 2046 2081 2046 63
 2078 2048 2081 2046 63
 2079 2046 2081 2045 63
 2079 2049 2081 2047 64
 2080 2047 2081 2045 63
 2080 2048 2081 2046 63
 2082 2047 2082 2046 63
 2080 2047 2081 2047 63
 2081 2047 2082 2046 63
 2080 2046 2081 2046 64
 2082 2048 2083 2047 63
 2079 2047 2081 2046 64
 2082 2048 2083 2047 63
 2079 2047 2081 2046 64
 2082 2048 2083 2047 63
 2080 2047 2082 2046 64
 2081 2047 2083 2046 63
 2081 2048 2081 2046 63
 2082 2048 2083 2046 63
 2079 2048 2082 2047 64
 2080 2048 2083 2045 63
 2080 2048 2081 2046 64
 2081 2048 2082 2046 63
 2079 2048 2081 2046 63
 2082 2047 2082 2046 63
 2079 2047 2081 2047 64
 2081 2048 2084 2047 63
 2079 2047 2081 2046 64
 2082 2047 2083 2047 63
 2079 2047 2080 2046 64
 2080 2047 2083 2046 63
 2079 2048 2081 2046 63
 2081 2047 2083 2046 63
 2080 2048 2081 2046 63
 2082 2047 2083 2047 63
 2080 2048 2081 2046 64
 2081 2048 2083 2046 63
 2079 2048 2081 2047 63
 2082 2048 2082 2048 63
 2079 2047 2082 2046 63
 2081 2048 2083 2046 63
 2080 2047 2081 2046 63
 2081 2048 2083 2047 63
 2077 2046 2080 2047 63
 2080 2047 2082 2046 63
 2077 2047 2079 2045 63
 2081 2048 2082 2047 63
 2079 2047 2081 2046 63
 2082 2047 2084 2047 63
 2080 2048 2081 2046 64
 2082 2047 2083 2046 63
 2081 2048 2081 2047 63
 2081 2047 2083 2046 63
 2080 2048 2081 2048 63
 2080 2048 2083 2046 63
 2080 2047 2081 2047 63
 2082 2048 2082 2046 63
 2079 2047 2080 2047 63
 2081 2048 2083 2047 63
 2080 2047 2081 2047 63
 2081 2048 2083 2047 63
 2079 2048 2081 2047 63
 2081 2048 2083 2047 63
 2080 2048 2080 2046 63
 2082 2048 2083 2047 63
 2079 2046 2082 2046 63
 2080 2047 2084 2046 63
 2080 2048 2081 2046 63
 2082 2047 2082 2047 63
 2080 2048 2082 2047 63
 2080 2047 2083 2045 63
 2081 2048 2081 2047 63
 2081 2046 2083 2047 63
 2080 2047 2081 2046 63
 2081 2048 2083 2045 63
 2081 2047 2081 2047 63
 2082 2048 2083 2047 63
 2080 2048 2081 2046 63
 2081 2048 2083 2048 63
 2080 2046 2081 2046 63
 2080 2046 2083 2046 63
 2080 2046 2081 2047 63
 2081 2047 2083 2047 64
 2080 2048 2082 2046 63
 2080 2048 2081 2046 63
 2081 2047 2079 2047 63
 2079 2046 2081 2047 63
 2079 2046 2081 2047 63
 2079 2047 2082 2046 63
 2082 2048 2082 2047 63
 2080 2047 2083 2047 63
 2081 2047 2083 2045 63
 2080 2047 2083 2047 63
 2081 2047 2082 2046 63
 2080 2048 2083 2047 64
 2081 2048 2082 2046 63
 2080 2048 2082 2046 63
 2081 2048 2083 2046 63
 2081 2047 2082 2046 63
 2081 2048 2082 2046 63
 2079 2047 2082 2047 63
 2081 2048 2083 2047 63
 2081 2046 2083 2047 63
 2080 2047 2081 2047 63
 2081 2047 2083 2047 63
 2080 2048 2081 2046 63
 2082 2047 2082 2046 63
 2081 2048 2081 2047 63
 2082 2048 2083 2046 63
 2080 2048 2080 2046 63
 2082 2047 2084 2047 63
 2079 2047 2081 2047 63
 2082 2049 2083 2047 63
 2080 2047 2080 2046 63
 2082 2047 2083 2047 63
 2081 2047 2080 2046 63
 2081 2047 2083 2047 63
 2080 2048 2081 2047 63
 2082 2047 2082 2047 63
 2079 2047 2082 2047 63
 2081 2047 2083 2046 63
 2079 2048 2082 2046 63
 2081 2048 2083 2045 63
 2080 2048 2081 2047 63
 2080 2047 2084 2046 63
 2080 2048 2082 2047 63
 2079 2046 2081 2047 63
 2079 2047 2080 2046 63
 2079 2048 2082 2046 63
 2080 2048 2079 2046 63
 2081 2047 2083 2046 63
 2081 2048 2082 2047 63
 2082 2047 2083 2047 63
 2081 2047 2081 2046 63
 2080 2047 2083 2047 63
 2081 2048 2082 2047 63
 2080 2048 2083 2047 63
 2082 2048 2081 2047 63
 2080 2048 2083 2046 63
 2081 2048 2082 2047 63
 2080 2047 2083 2046 63
 2081 2047 2082 2047 63
 2081 2047 2083 2047 63
 2081 2047 2081 2047 63
 2081 2047 2082 2046 63
 2080 2046 2082 2046 63
 2081 2048 2082 2047 63
 2080 2048 2081 2047 63
 2080 2047 2083 2046 64