File: slave_origin_full/pi/sandbox/tf_fitting_rfiles/complete/tmp_tga_debug_Mar_26_2019/TGA_2nd.prod.dat
# matrix : d no_of_rows: 100000 no_of_cols: 5 REAL
# matrix columns 1 thru 5
 2078 2048 2079 2046 63
 2076 2046 2078 2046 63
 2078 2047 2079 2047 63
 2077 2047 2078 2046 63
 2076 2047 2079 2047 63
 2078 2048 2079 2046 63
 2077 2047 2078 2046 63
 2078 2048 2079 2047 63
 2078 2047 2079 2047 63
 2080 2047 2081 2047 63
 2079 2048 2082 2046 63
 2079 2048 2081 2046 63
 2080 2048 2081 2046 63
 2079 2047 2081 2046 63
 2079 2047 2081 2045 63
 2080 2048 2082 2047 63
 2079 2047 2080 2046 63
 2080 2047 2082 2046 63
 2077 2047 2078 2046 63
 2075 2048 2077 2046 63
 2078 2048 2080 2048 63
 2079 2046 2080 2046 63
 2080 2048 2082 2046 63
 2080 2047 2080 2046 63
 2080 2047 2082 2046 63
 2080 2047 2080 2047 64
 2079 2048 2082 2046 63
 2076 2048 2076 2046 64
 2077 2048 2079 2046 63
 2076 2047 2078 2046 64
 2077 2047 2080 2046 63
 2078 2047 2078 2047 64
 2077 2047 2080 2046 63
 2078 2046 2078 2046 63
 2078 2047 2080 2046 64
 2078 2047 2079 2046 63
 2077 2048 2078 2046 64
 2078 2047 2079 2047 63
 2076 2048 2078 2046 64
 2078 2048 2080 2046 63
 2078 2048 2078 2047 63
 2076 2048 2079 2047 64
 2079 2047 2079 2046 63
 2077 2047 2078 2046 64
 2078 2047 2081 2046 63
 2078 2048 2079 2047 63
 2076 2048 2078 2046 63
 2077 2047 2079 2047 64
 2081 2047 2082 2047 63
 2079 2047 2082 2047 64
 2081 2048 2082 2047 63
 2078 2048 2080 2046 63
 2081 2047 2083 2046 63
 2079 2048 2079 2046 63
 2081 2048 2082 2046 63
 2078 2048 2081 2046 64
 2081 2047 2082 2046 63
 2078 2046 2080 2047 64
 2076 2047 2079 2046 63
 2076 2048 2077 2047 64
 2078 2047 2079 2047 63
 2079 2047 2080 2046 63
 2080 2048 2080 2046 63
 2080 2048 2080 2047 63
 2081 2048 2082 2047 63
 2079 2047 2080 2045 64
 2081 2048 2082 2046 63
 2079 2046 2079 2046 63
 2076 1940 2081 1938 63
 2077 2044 2081 2042 64
 2082 2117 2081 2115 63
 2080 2101 2079 2101 64
 2081 2043 2083 2043 63
 2077 2011 2080 2009 63
 2080 2024 2083 2025 63
 2079 2056 2080 2054 64
 2081 2066 2082 2066 63
 2079 2058 2079 2056 64
 2081 2041 2082 2040 63
 2078 2037 2081 2037 64
 2081 2044 2082 2044 63
 2080 2053 2080 2052 63
 2081 2053 2081 2052 64
 2081 2047 2079 2047 63
 2080 2044 2082 2043 63
 2080 2045 2080 2044 63
 2080 2049 2082 2048 63
 2079 2048 2080 2048 63
 2079 2049 2082 2048 64
 2080 2047 2081 2045 63
 2079 2047 2082 2045 63
 2080 2047 2082 2046 63
 2079 2048 2081 2045 64
 2081 2048 2081 2048 63
 2079 2048 2080 2047 64
 2080 2046 2081 2046 63
 2079 2047 2080 2046 63
 2080 2047 2081 2046 63
 2077 2048 2080 2047 64
 2079 2047 2078 2047 63
 2077 2048 2078 2046 64
 2081 2048 2082 2046 63
 2080 2048 2080 2047 64
 2079 2047 2081 2046 63
 2078 2048 2082 2048 64
 2082 2047 2082 2047 63
 2079 2048 2081 2047 64
 2080 2047 2080 2046 63
 2080 2053 2080 2048 64
 2081 2120 2081 2119 63
 2079 2013 2081 2012 64
 2080 1969 2083 1970 63
 2077 2014 2081 2012 63
 2080 2070 2081 2069 63
 2080 2087 2080 2086 63
 2082 2058 2081 2057 63
 2078 2032 2081 2031 64
 2080 2027 2082 2026 63
 2077 2046 2078 2045 64
 2080 2056 2082 2055 63
 2078 2057 2081 2057 64
 2081 2045 2081 2043 63
 2078 2042 2081 2041 64
 2081 2043 2082 2042 63
 2078 2050 2081 2048 64
 2081 2050 2082 2049 63
 2079 2049 2081 2047 63
 2080 2045 2083 2044 63
 2079 2047 2080 2045 64
 2081 2045 2082 2045 63
 2079 2049 2080 2049 63
 2082 2047 2082 2046 63
 2079 2048 2081 2048 64
 2081 2046 2082 2044 63
 2079 2048 2080 2047 63
 2081 2046 2082 2045 63
 2079 2049 2080 2048 64
 2080 2046 2082 2044 63
 2076 2049 2077 2047 64
 2078 2046 2079 2046 63
 2077 2048 2078 2047 64
 2081 2047 2083 2047 63
 2080 2048 2080 2047 63
 2081 2048 2083 2046 63
 2078 2048 2080 2046 63
 2081 2047 2083 2047 63
 2078 2048 2080 2046 63
 2081 2047 2083 2046 63
 2079 2048 2080 2047 64
 1500 3485 2658 3486 63
 2079 2016 2080 2016 64
 2082 2109 2081 2107 63
 2077 2117 2077 2117 64
 2079 2057 2083 2055 64
 2078 2014 2081 2013 63
 2080 2016 2082 2013 64
 2079 2050 2081 2048 63
 2082 2066 2081 2066 63
 2079 2063 2080 2061 63
 2080 2044 2083 2042 63
 2078 2037 2081 2036 64
 2081 2041 2083 2041 63
 2078 2052 2080 2050 63
 2080 2053 2081 2052 63
 2077 2049 2080 2048 63
 2080 2045 2083 2043 63
 2080 2045 2080 2044 63
 2080 2046 2083 2045 63
 2080 2051 2080 2050 63
 2079 2048 2083 2046 63
 2081 2048 2079 2047 63
 2081 2046 2081 2045 63
 2079 2047 2081 2046 63
 2080 2048 2083 2044 63
 2079 2048 2081 2047 64
 2081 2048 2084 2047 64
 2080 2048 2081 2047 63
 2080 2047 2083 2046 64
 2078 2047 2079 2046 63
 2079 2048 2082 2046 64
 2079 2048 2080 2046 64
 2079 2048 2081 2047 64
 2080 2047 2080 2047 63
 2080 2047 2083 2045 64
 2080 2047 2081 2047 63
 2081 2047 2082 2046 63
 2080 2047 2079 2047 63
 2080 2047 2081 2046 64
 2081 2046 2081 2047 64
 2080 2047 2082 2047 64
 2081 2146 2079 2145 63
 2081 2035 2081 2035 63
 2080 1971 2083 1969 63
 2079 1999 2083 1998 63
 2081 2060 2081 2058 63
 2081 2088 2082 2087 64
 2081 2067 2081 2065 63
 2080 2036 2081 2036 64
 2081 2026 2081 2024 63
 2079 2042 2083 2040 64
 2081 2055 2082 2054 63
 2080 2058 2082 2056 63
 2080 2048 2082 2048 63
 2079 2041 2081 2041 64
 2081 2042 2082 2042 63
 2079 2048 2081 2048 64
 2081 2050 2082 2049 63
 2079 2051 2082 2048 64
 2079 2045 2081 2044 63
 2080 2047 2082 2046 64
 2082 2045 2081 2045 63
 2079 2049 2082 2048 64
 2081 2048 2082 2046 63
 2079 2048 2081 2047 64
 2081 2046 2083 2045 63
 2079 2048 2081 2048 64
 2081 2046 2082 2046 63
 2079 2049 2081 2047 64
 2082 2048 2083 2046 63
 2079 2048 2081 2047 64
 2080 2046 2080 2046 63
 2078 2049 2079 2046 64
 2080 2047 2081 2046 63
 2079 2048 2079 2047 63
 2082 2047 2083 2045 63
 2080 2048 2081 2048 63
 2081 2046 2083 2046 63
 2080 2049 2081 2048 63
 2081 2046 2082 2045 63
 2080 2048 2081 2048 64
 1507 3543 2657 3539 63
 2078 1988 2082 1987 64
 2083 2095 2081 2094 63
 2081 2124 2079 2123 64
 2082 2072 2082 2070 63
 2078 2021 2082 2019 63
 2081 2009 2083 2009 63
 2079 2042 2081 2041 64
 2082 2064 2082 2063 63
 2079 2066 2081 2065 64
 2081 2047 2083 2046 63
 2079 2039 2081 2037 64
 2081 2039 2082 2037 63
 2080 2052 2080 2050 64
 2081 2053 2083 2051 63
 2079 2052 2081 2051 63
 2081 2043 2082 2043 63
 2079 2045 2080 2044 63
 2082 2045 2083 2044 63
 2079 2050 2081 2050 63
 2081 2047 2083 2047 63
 2079 2049 2080 2048 64
 2081 2046 2083 2045 63
 2078 2047 2079 2046 63
 2082 2046 2083 2046 63
 2080 2048 2080 2049 64
 2081 2047 2084 2047 63
 2080 2047 2080 2048 63
 2080 2046 2084 2044 63
 2079 2048 2081 2046 64
 2081 2047 2083 2045 63
 2079 2049 2080 2047 63
 2079 2046 2081 2045 63
 2079 2048 2079 2047 63
 2080 2046 2082 2047 63
 2079 2048 2080 2046 63
 2082 2048 2083 2046 63
 2080 2047 2080 2047 64
 2081 2048 2082 2046 63
 2080 2047 2080 2045 63
 2081 2047 2082 2046 63
 2080 2140 2073 2145 63
 2081 2057 2083 2056 64
 2079 1977 2082 1976 63
 2079 1985 2084 1984 63
 2080 2048 2081 2047 63
 2081 2085 2081 2085 63
 2081 2075 2080 2074 63
 2081 2041 2081 2041 63
 2080 2026 2081 2026 63
 2080 2035 2083 2034 63
 2080 2054 2081 2053 63
 2081 2059 2082 2057 63
 2081 2051 2081 2051 63
 2080 2042 2083 2041 63
 2080 2042 2081 2041 63
 2080 2046 2082 2047 64
 2079 2051 2080 2050 63
 2080 2050 2081 2049 64
 2081 2047 2081 2046 63
 2080 2046 2083 2044 64
 2081 2046 2081 2044 63
 2080 2049 2082 2047 63
 2081 2049 2081 2048 63
 2081 2048 2082 2047 63
 2082 2046 2081 2046 63
 2079 2048 2081 2045 64
 2081 2047 2082 2047 63
 2078 2048 2082 2047 63
 2082 2047 2081 2046 63
 2079 2048 2082 2047 64
 2081 2046 2082 2046 63
 2080 2048 2081 2047 64
 2079 2047 2080 2046 63
 2079 2048 2080 2048 64
 2079 2046 2081 2046 63
 2079 2048 2080 2047 64
 2080 2046 2081 2046 63
 2079 2047 2082 2046 64
 2081 2047 2082 2046 63
 2079 2048 2081 2047 64
 2082 2047 2082 2047 63
 2077 1963 2082 1962 64
 2081 2074 2082 2074 63
 2081 2126 2080 2125 64
 2082 2087 2082 2087 63
 2078 2030 2082 2029 63
 2080 2007 2083 2007 63
 2080 2034 2081 2033 63
 2081 2060 2082 2059 63
 2080 2069 2080 2067 63
 2080 2050 2081 2049 63
 2079 2040 2081 2039 64
 2081 2036 2082 2035 63
 2079 2047 2081 2047 64
 2082 2052 2082 2052 63
 2079 2053 2081 2052 64
 2081 2045 2083 2044 63
 2079 2044 2080 2043 64
 2081 2044 2083 2044 63
 2079 2049 2080 2048 64
 2082 2048 2082 2046 63
 2078 2049 2080 2049 64
 2082 2046 2082 2045 63
 2080 2048 2081 2046 64
 2082 2046 2082 2046 63
 2079 2049 2080 2048 64
 2081 2045 2082 2046 63
 2079 2048 2081 2048 64
 2081 2046 2082 2045 63
 2079 2047 2081 2046 64
 2082 2047 2084 2046 63
 2078 2049 2081 2046 64
 2081 2047 2083 2047 63
 2078 2049 2081 2047 63
 2081 2047 2081 2046 63
 2078 2047 2079 2047 64
 2079 2046 2081 2045 63
 2078 2048 2080 2048 64
 2081 2046 2082 2046 63
 2079 2048 2081 2047 64
 2082 2047 2082 2046 64
 2650 594 1497 592 63
 2080 2083 2083 2082 63
 2079 1990 2081 1989 64
 2080 1975 2082 1974 63
 2079 2035 2082 2034 63
 2081 2080 2083 2079 63
 2081 2083 2080 2080 63
 2081 2048 2082 2047 63
 2079 2027 2081 2028 63
 2081 2031 2083 2031 63
 2080 2050 2079 2050 63
 2081 2057 2083 2056 63
 2080 2054 2080 2054 63
 2081 2043 2082 2042 64
 2080 2042 2080 2041 64
 2081 2044 2083 2042 63
 2081 2052 2080 2051 63
 2081 2049 2082 2049 63
 2080 2049 2081 2047 63
 2080 2044 2083 2043 63
 2080 2047 2080 2046 63
 2080 2047 2083 2046 64
 2080 2049 2080 2047 63
 2081 2047 2083 2047 63
 2080 2048 2081 2046 63
 2079 2047 2083 2046 64
 2079 2047 2080 2046 63
 2081 2048 2082 2047 63
 2080 2048 2080 2046 63
 2081 2047 2082 2047 63
 2080 2046 2081 2047 63
 2080 2046 2083 2045 64
 2080 2047 2081 2047 63
 2079 2046 2082 2045 63
 2081 2047 2081 2047 63
 2078 2047 2081 2047 63
 2080 2048 2080 2046 63
 2078 2047 2079 2047 63
 2080 2048 2080 2047 63
 2080 2048 2083 2047 63
 2081 2047 2081 2047 63
 2076 1944 2083 1942 64
 2081 2052 2082 2050 63
 2083 2124 2080 2122 64
 2082 2100 2080 2099 63
 2079 2039 2083 2039 63
 2080 2008 2082 2007 63
 2079 2026 2083 2025 64
 2080 2056 2082 2055 63
 2080 2068 2081 2068 64
 2081 2056 2082 2055 63
 2079 2040 2081 2039 63
 2081 2037 2082 2036 63
 2079 2044 2081 2044 64
 2081 2053 2083 2052 63
 2079 2053 2081 2052 64
 2081 2047 2083 2046 63
 2080 2044 2081 2043 63
 2082 2045 2081 2044 63
 2079 2048 2081 2047 64
 2081 2049 2082 2046 63
 2079 2048 2081 2047 64
 2081 2045 2082 2046 63
 2079 2047 2081 2047 64
 2081 2047 2083 2044 63
 2079 2048 2081 2047 63
 2082 2048 2082 2046 63
 2080 2049 2080 2047 64
 2081 2046 2083 2046 63
 2080 2048 2080 2046 64
 2081 2047 2082 2045 63
 2079 2048 2080 2048 64
 2082 2047 2083 2047 63
 2079 2048 2081 2047 64
 2081 2047 2082 2046 63
 2079 2048 2082 2047 64
 2080 2045 2081 2044 63
 2079 2048 2079 2048 63
 2080 2047 2080 2045 63
 2079 2049 2080 2047 63
 2080 2046 2082 2046 63
 2593 954 1559 941 63
 2082 2112 2082 2111 63
 2078 2005 2082 2003 63
 2080 1970 2085 1968 63
 2078 2019 2080 2018 63
 2081 2072 2083 2072 63
 2079 2086 2081 2086 64
 2082 2056 2083 2054 63
 2077 2031 2080 2030 64
 2080 2028 2084 2026 63
 2080 2048 2081 2047 64
 2082 2056 2082 2056 63
 2079 2057 2080 2055 64
 2082 2045 2081 2042 63
 2080 2043 2080 2041 64
 2081 2043 2083 2041 63
 2079 2050 2081 2050 64
 2081 2050 2083 2049 63
 2080 2049 2080 2049 64
 2080 2045 2084 2045 63
 2080 2046 2080 2045 64
 1888 2527 2275 2527 63
 1885 2476 2274 2474 64
 1888 2503 2275 2503 63
 1887 2562 2272 2563 64
 1889 2588 2275 2587 63
 1887 2576 2273 2575 64
 1888 2544 2275 2545 63
 1887 2537 2274 2535 64
 1888 2545 2275 2544 63
 1887 2562 2273 2562 63
 1887 2563 2274 2562 63
 1887 2559 2274 2559 63
 1889 2550 2274 2549 63
 1887 2551 2273 2551 64
 1888 2554 2276 2553 63
 1888 2558 2272 2557 63
 1888 2557 2273 2557 63
 1886 2555 2271 2554 63
 1887 2553 2274 2553 63
 1886 2555 2272 2556 63
 1887 2555 2274 2555 64
 1887 2556 2272 2555 64
 1887 2554 2275 2554 64
 1888 2556 2274 2556 63
 1887 2554 2275 2554 63
 1888 2556 2273 2555 63
 1888 2555 2275 2555 64
 1888 2556 2273 2556 63
 1888 2555 2275 2555 63
 1888 2556 2274 2556 63
 1887 2555 2275 2555 64
 1888 2555 2274 2556 63
 1887 2555 2274 2555 64
 1887 2555 2273 2555 63
 1888 2555 2275 2556 64
 1888 2556 2274 2555 63
 1888 2555 2275 2556 64
 1888 2555 2273 2555 63
 1888 2556 2274 2556 64
 1888 2556 2275 2557 63
 1888 2556 2273 2555 64
 1887 2556 2275 2555 63
 1887 2555 2274 2554 64
 1887 2556 2275 2556 63
 1886 2555 2273 2555 64
 1887 2556 2275 2554 63
 1887 2555 2274 2556 64
 1888 2556 2273 2555 63
 1887 2557 2274 2556 64
 1888 2555 2274 2555 63
 1887 2556 2274 2556 64
 1889 2555 2273 2555 63
 1887 2556 2274 2556 64
 1888 2555 2275 2556 63
 1887 2556 2274 2555 64
 1888 2555 2275 2555 63
 1887 2556 2273 2555 64
 1888 2555 2275 2555 63
 1886 2555 2271 2555 64
 1887 2556 2274 2555 63
 1886 2555 2273 2555 64
 1887 2555 2273 2554 63
 1886 2556 2272 2556 64
 1889 2555 2275 2555 63
 1887 2556 2274 2556 64
 1889 2555 2275 2555 63
 1885 2555 2273 2556 64
 1889 2555 2274 2555 63
 1887 2557 2274 2556 64
 1889 2556 2274 2556 63
 1887 2557 2274 2556 63
 1889 2555 2275 2556 63
 1887 2556 2273 2556 64
 1889 2557 2275 2556 63
 1887 2556 2273 2556 64
 1889 2556 2275 2556 63
 1886 2555 2274 2555 64
 1887 2555 2274 2556 64
 1887 2556 2273 2555 63
 1889 2556 2275 2556 63
 1887 2556 2273 2556 64
 2273 1560 1888 1555 63
 2274 1695 1884 1693 64
 2274 1670 1887 1669 63
 2270 1562 1886 1560 64
 2272 1488 1890 1486 63
 2270 1494 1888 1491 64
 2272 1543 1889 1541 63
 2272 1574 1885 1573 63
 2273 1567 1888 1565 63
 2270 1540 1887 1538 64
 2272 1526 1889 1526 63
 2270 1532 1887 1532 64
 2273 1546 1889 1545 63
 2271 1550 1887 1548 64
 2273 1545 1888 1543 63
 2271 1537 1887 1536 64
 2272 1537 1889 1536 63
 2270 1540 1887 1538 64
 2270 1543 1889 1542 63
 2269 1542 1886 1541 64
 2271 1541 1887 1539 63
 2269 1540 1886 1539 64
 2271 1542 1887 1540 63
 2271 1541 1887 1539 64
 2273 1542 1889 1539 63
 2270 1540 1887 1539 64
 2272 1541 1889 1539 63
 2270 1539 1887 1538 63
 2272 1541 1889 1539 64
 2269 1540 1887 1539 64
 2272 1541 1888 1539 64
 2271 1540 1887 1538 64
 2272 1539 1888 1539 64
 2270 1540 1887 1539 63
 2272 1540 1889 1538 63
 2271 1540 1887 1539 64
 2272 1540 1889 1538 63
 2271 1540 1887 1537 64
 2272 1540 1889 1538 63
 2272 1539 1887 1538 63
 2272 1541 1889 1539 63
 2271 1540 1887 1537 63
 2272 1540 1889 1539 64
 2271 1539 1887 1538 63
 2271 1540 1888 1538 64
 2271 1540 1887 1537 63
 2272 1539 1888 1539 63
 2271 1540 1888 1538 63
 2272 1540 1888 1538 64
 2272 1540 1887 1538 63
 2271 1540 1889 1538 64
 2272 1540 1887 1539 63
 2271 1540 1887 1538 64
 2270 1540 1888 1537 63
 2271 1540 1888 1537 64
 2271 1540 1888 1539 63
 2271 1540 1888 1538 64
 2272 1540 1888 1538 63
 2271 1540 1889 1539 63
 2272 1539 1887 1537 63
 2271 1541 1886 1538 64
 2270 1539 1886 1538 63
 2271 1539 1887 1539 64
 2270 1540 1885 1538 63
 2269 1540 1886 1538 64
 2273 1539 1888 1538 63
 2271 1539 1888 1539 64
 2273 1539 1888 1539 63
 2271 1539 1887 1537 64
 2272 1539 1888 1538 63
 2270 1539 1888 1538 64
 2273 1540 1888 1538 63
 2271 1540 1887 1537 64
 2272 1539 1889 1538 63
 2271 1540 1887 1538 64
 2273 1539 1888 1538 63
 2270 1540 1887 1538 64
 2272 1539 1888 1536 63
 2270 1539 1888 1538 63
 2272 1539 1888 1537 63
 2272 1540 1887 1537 64
 2272 1539 1889 1538 63
 1885 2465 2275 2464 64
 1889 2506 2274 2505 63
 1887 2525 2273 2526 64
 1888 2584 2272 2584 63
 1886 2581 2272 2581 64
 1890 2557 2275 2556 63
 1887 2538 2273 2537 64
 1889 2542 2275 2541 63
 1887 2555 2273 2554 64
 1890 2563 2273 2562 63
 1887 2560 2273 2560 64
 1889 2552 2273 2551 63
 1886 2550 2273 2549 64
 1888 2552 2274 2551 63
 1886 2557 2273 2556 64
 1888 2557 2274 2556 63
 1887 2556 2273 2555 64
 1890 2555 2275 2555 63
 1887 2554 2272 2552 64
 1889 2556 2275 2555 64
 1887 2555 2271 2555 64
 1888 2555 2273 2556 64
 1886 2554 2271 2554 64
 1889 2554 2273 2555 63
 1886 2554 2272 2554 64
 1890 2555 2275 2555 63
 1886 2555 2271 2556 64
 1889 2555 2275 2556 63
 1887 2556 2273 2555 63
 1889 2554 2274 2554 64
 1887 2555 2272 2554 63
 1889 2554 2274 2555 63
 1887 2556 2273 2555 64
 1889 2555 2274 2555 64
 1887 2555 2272 2554 64
 1889 2555 2275 2555 63
 1887 2555 2272 2555 63
 1889 2556 2274 2556 63
 1886 2554 2273 2555 64
 1889 2555 2275 2555 63
 1887 2555 2273 2555 64
 1889 2555 2274 2555 64
 1888 2556 2273 2556 63
 1889 2555 2274 2555 63
 1888 2556 2273 2555 64
 1889 2555 2274 2554 63
 1888 2556 2272 2555 63
 1889 2556 2275 2555 63
 1888 2556 2272 2556 64
 1888 2555 2273 2556 64
 1887 2556 2273 2555 63
 1889 2556 2275 2555 64
 1887 2555 2273 2556 63
 1887 2555 2275 2555 63
 1888 2555 2272 2554 63
 1888 2555 2275 2555 63
 1887 2555 2273 2555 63
 1888 2556 2275 2555 64
 1888 2556 2273 2555 63
 1889 2555 2274 2555 64
 1887 2555 2272 2555 63
 1888 2555 2275 2556 63
 1888 2556 2271 2555 63
 1886 2555 2273 2554 63
 1886 2554 2272 2555 63
 1888 2554 2272 2555 63
 1889 2555 2273 2554 63
 1888 2556 2275 2554 63
 1887 2556 2273 2555 63
 1888 2556 2273 2555 64
 1887 2555 2273 2555 63
 1888 2556 2274 2556 64
 1887 2555 2273 2554 64
 1888 2556 2274 2556 64
 1888 2556 2272 2555 63
 1888 2556 2273 2555 64
 1889 2556 2273 2556 63
 1887 2555 2274 2555 64
 1888 2556 2274 2555 63
 1887 2554 2273 2554 64
 1888 2555 2274 2555 63
 2273 1647 1887 1647 63
 2270 1457 1890 1455 63
 2270 1599 1886 1598 64
 2271 1496 1889 1495 63
 2272 1573 1888 1571 64
 2271 1517 1888 1515 64
 2272 1553 1887 1551 63
 2272 1528 1889 1527 63
 2271 1544 1888 1543 64
 2271 1537 1887 1534 63
 2271 1541 1888 1539 64
 2272 1538 1889 1537 63
 2271 1539 1888 1538 64
 2272 1539 1889 1538 63
 2270 1538 1887 1538 64
 2271 1539 1889 1538 63
 2271 1539 1887 1537 64
 2272 1539 1889 1539 63
 2270 1539 1888 1538 64
 2273 1539 1888 1538 63
 2270 1540 1888 1539 64
 2271 1539 1889 1538 63
 2270 1540 1887 1538 64
 2270 1540 1888 1537 63
 2268 1539 1887 1538 64
 2270 1540 1889 1538 63
 2269 1540 1887 1538 63
 2272 1540 1889 1538 63
 2270 1539 1888 1538 64
 2273 1540 1889 1538 63
 2270 1539 1887 1539 64
 2272 1540 1889 1538 63
 2270 1539 1887 1537 64
 2273 1539 1889 1537 63
 2270 1538 1888 1538 63
 2272 1539 1890 1537 63
 2271 1540 1887 1538 64
 2272 1539 1889 1538 63
 2270 1539 1887 1539 64
 2272 1539 1889 1538 63
 2270 1539 1887 1539 64
 2272 1539 1889 1538 63
 2271 1540 1887 1538 64
 2271 1540 1888 1538 63
 2270 1540 1888 1537 64
 2272 1539 1890 1538 63
 2271 1540 1887 1538 64
 2272 1540 1890 1538 63
 2270 1539 1886 1536 64
 2272 1539 1889 1538 63
 2269 1540 1888 1537 64
 2273 1540 1890 1537 63
 2270 1540 1887 1538 64
 2272 1539 1889 1539 64
 2269 1540 1886 1537 63
 2271 1539 1889 1538 63
 2270 1540 1888 1538 63
 2271 1539 1890 1538 63
 2271 1540 1887 1538 64
 2272 1539 1890 1539 63
 2271 1539 1886 1537 64
 2273 1539 1889 1538 63
 2271 1539 1887 1537 64
 2273 1539 1889 1539 64
 2269 1539 1886 1538 63
 2270 1541 1888 1538 63
 2270 1539 1885 1539 63
 2270 1539 1889 1539 63
 2270 1539 1887 1538 63
 2271 1539 1889 1538 63
 2271 1540 1888 1539 64
 2272 1540 1889 1537 64
 2270 1540 1888 1539 63
 2272 1539 1889 1538 63
 2272 1541 1887 1539 64
 2272 1539 1889 1538 63
 2271 1539 1887 1539 63
 2271 1540 1889 1538 64
 2271 1539 1887 1537 63
 2272 1540 1889 1538 64
 2271 1539 1887 1537 63
 2079 1994 2083 1994 64
 2081 2086 2080 2085 63
 2080 2023 2083 2022 64
 2081 2064 2080 2064 63
 2081 2035 2081 2035 64
 2081 2054 2081 2052 63
 2079 2044 2082 2043 64
 2079 2049 2079 2048 64
 2079 2045 2082 2045 63
 2080 2047 2081 2046 63
 2080 2046 2082 2046 64
 2080 2047 2081 2046 63
 2080 2048 2082 2046 64
 2080 2047 2081 2046 63
 2079 2047 2082 2047 64
 2081 2047 2081 2046 63
 2080 2048 2081 2046 64
 2081 2047 2081 2046 63
 2079 2047 2081 2046 63
 2079 2046 2081 2046 63
 2081 2048 2082 2047 64
 2081 2047 2081 2046 63
 2079 2048 2082 2046 63
 2082 2048 2081 2048 63
 2079 2047 2081 2045 64
 2080 2047 2080 2047 63
 2078 2047 2079 2046 64
 2080 2048 2080 2047 63
 2078 2048 2080 2047 64
 2081 2048 2082 2047 63
 2079 2048 2082 2046 64
 2081 2047 2082 2047 63
 2079 2047 2082 2047 64
 2080 2048 2081 2046 63
 2079 2048 2081 2047 64
 2081 2047 2082 2047 63
 2079 2047 2082 2046 64
 2082 2048 2081 2046 63
 2079 2046 2081 2046 64
 2081 2047 2082 2046 63
 2079 2047 2081 2046 64
 2081 2048 2083 2046 63
 2079 2047 2080 2046 64
 2082 2047 2082 2047 63
 2079 2047 2081 2047 64
 2081 2047 2083 2047 63
 2079 2047 2080 2045 64
 2081 2047 2082 2046 63
 2079 2048 2081 2047 64
 2081 2048 2082 2046 63
 2079 2049 2081 2046 64
 2082 2046 2081 2046 63
 2080 2047 2080 2046 64
 2082 2048 2082 2046 63
 2079 2047 2080 2047 64
 2082 2048 2082 2046 64
 2079 2047 2080 2046 64
 2082 2048 2083 2047 63
 2079 2048 2080 2047 64
 2080 2048 2083 2047 63
 2079 2048 2080 2046 64
 2081 2048 2083 2047 64
 2079 2046 2080 2046 64
 2082 2047 2082 2046 64
 2079 2048 2079 2046 64
 2079 2047 2083 2046 63
 2079 2048 2080 2047 64
 2078 2048 2081 2045 63
 2079 2047 2079 2047 64
 2080 2048 2080 2046 64
 2079 2048 2079 2046 64
 2081 2048 2083 2047 63
 2079 2047 2081 2046 63
 2080 2047 2083 2047 63
 2079 2048 2081 2046 64
 2082 2046 2082 2046 63
 2079 2048 2080 2045 64
 2081 2048 2084 2047 63
 2080 2047 2080 2047 64
 2081 2047 2082 2047 63
 2079 2048 2081 2047 64
 2082 2047 2082 2046 63
 2079 2048 2080 2047 64
 2079 2048 2081 2046 63
 2078 2048 2080 2047 64
 2080 2048 2081 2046 63
 2080 2047 2079 2047 63
 2080 2048 2082 2046 63
 2078 2047 2079 2046 64
 2079 2048 2080 2046 64
 2078 2048 2080 2046 63
 2079 2048 2081 2047 63
 2077 2048 2077 2045 63
 2079 2048 2082 2047 64
 2076 2047 2078 2046 64
 2079 2047 2082 2047 63
 2079 2047 2080 2048 63
 2079 2047 2081 2047 64
 2080 2048 2079 2046 64
 2078 2048 2082 2047 64
 2078 2048 2077 2046 64
 2077 2047 2080 2046 63
 2079 2048 2079 2047 63
 2077 2048 2080 2045 64
 2079 2047 2080 2046 63
 2079 2048 2081 2046 63
 2078 2046 2080 2046 63
 2079 2048 2081 2047 64
 2075 2047 2078 2047 63
 2077 2047 2079 2046 64
 2079 2047 2080 2046 63
 2079 2047 2082 2046 64
 2079 2047 2080 2045 64
 2078 2047 2081 2047 64
 2081 2047 2081 2047 63
 2079 2048 2082 2048 64
 2081 2048 2081 2047 63
 2079 2048 2081 2046 64
 2080 2046 2081 2046 63
 2079 2048 2082 2046 63
 2081 2048 2082 2046 63
 2079 2047 2082 2046 64
 2081 2047 2081 2046 63
 2079 2048 2082 2047 63
 2081 2048 2081 2046 63
 2079 2047 2081 2047 64
 2081 2048 2080 2047 63
 2080 2047 2081 2046 64
 2082 2047 2081 2046 63
 2080 2047 2081 2047 64
 2082 2048 2081 2047 63
 2079 2047 2081 2047 64
 2081 2046 2082 2047 63
 2079 2046 2080 2048 64
 2081 2048 2082 2046 63
 2078 2046 2081 2046 64
 2080 2048 2083 2046 63
 2078 2048 2082 2045 64
 2081 2047 2082 2046 64
 2079 2048 2081 2046 64
 2081 2047 2082 2046 63
 2078 2048 2081 2046 64
 2080 2048 2082 2046 63
 2079 2047 2081 2045 64
 2081 2048 2082 2046 64
 2079 2048 2081 2047 64
 2082 2048 2082 2046 64
 2078 2047 2081 2046 64
 2082 2048 2082 2048 63
 2079 2047 2080 2046 64
 2081 2048 2082 2045 63
 2077 2047 2079 2045 64
 2080 2048 2082 2047 63
 2077 2047 2079 2046 64
 2080 2047 2081 2046 63
 2079 2048 2080 2047 64
 2081 2047 2083 2046 63
 2079 2048 2081 2046 64
 2081 2048 2082 2045 63
 2079 2048 2080 2046 64
 2081 2048 2082 2046 63
 2079 2047 2080 2046 64
 2081 2047 2082 2047 63
 2080 2048 2081 2047 64
 2081 2047 2083 2047 63
 2079 2048 2080 2046 64
 2081 2047 2083 2046 63
 2078 2047 2080 2046 63
 2082 2048 2082 2047 63
 2080 2046 2080 2047 64
 2082 2047 2083 2046 64
 2079 2048 2079 2046 63
 2081 2047 2082 2047 64
 2080 2048 2080 2047 64
 2081 2047 2082 2046 63
 2079 2047 2080 2046 64
 2081 2046 2082 2046 63
 2079 2047 2081 2047 63
 2081 2047 2082 2048 63
 2079 2048 2081 2046 63
 2080 2048 2083 2047 63
 2080 2047 2080 2046 64
 2081 2048 2083 2047 64
 2080 2048 2080 2045 64
 2081 2048 2082 2047 64
 2079 2048 2081 2046 64
 2082 2048 2082 2047 63
 2080 2047 2080 2046 63
 2081 2047 2082 2046 63
 2079 2048 2081 2047 64
 2080 2047 2082 2045 64
 2081 2047 2080 2046 63
 2080 2048 2082 2046 64
 2079 2048 2080 2047 63
 2079 2046 2081 2048 63
 2079 2047 2080 2047 64
 2080 2047 2081 2046 64
 2079 2047 2081 2047 63
 2081 2049 2082 2047 64
 2079 2047 2081 2047 63
 2080 2048 2082 2047 64
 2080 2047 2080 2046 64
 2081 2048 2083 2046 64
 2080 2048 2082 2046 63
 2081 2047 2082 2047 64
 2081 2048 2081 2047 63
 2079 2047 2082 2045 64
 2079 2048 2082 2046 64
 2080 2046 2081 2046 64
 2081 2048 2081 2047 63
 2080 2047 2081 2046 64
 2080 2048 2081 2047 64
 2080 2047 2083 2045 63
 2081 2047 2080 2046 63
 2079 2047 2082 2047 63
 2081 2047 2082 2046 63
 2081 2047 2081 2047 64
 2080 2047 2081 2045 63
 2080 2047 2081 2046 64
 2080 2047 2082 2046 63
 2079 2047 2083 2047 64
 2080 2047 2082 2047 63
 2080 2048 2082 2046 64
 2081 2047 2081 2047 64
 2079 2048 2082 2046 63
 2080 2048 2082 2046 63
 2080 2046 2080 2046 63
 2081 2047 2082 2046 63
 2080 2047 2081 2046 64
 2081 2048 2082 2046 63
 2079 2048 2082 2047 64
 2081 2048 2082 2046 63
 2079 2048 2082 2047 64
 2081 2047 2081 2045 63
 2078 2048 2080 2047 64
 2080 2046 2080 2045 64
 2078 2048 2080 2046 64
 2079 2048 2081 2046 63
 2078 2047 2080 2046 64
 2082 2048 2082 2047 63
 2079 2048 2080 2046 64
 2081 2048 2083 2047 63
 2079 2048 2081 2046 64
 2081 2047 2082 2046 63
 2079 2047 2081 2046 64
 2080 2048 2083 2046 63
 2079 2048 2081 2046 64
 2082 2048 2082 2047 63
 2079 2047 2081 2046 64
 2081 2048 2082 2046 63
 2079 2046 2081 2047 64
 2081 2047 2082 2046 63
 2079 2048 2081 2047 64
 2081 2048 2083 2047 63
 2079 2048 2081 2047 64
 2081 2047 2083 2047 63
 2079 2047 2080 2046 64
 2081 2048 2083 2047 63
 2079 2046 2080 2046 64
 2082 2047 2082 2046 63
 2078 2048 2081 2046 64
 2081 2048 2084 2047 63
 2079 2048 2081 2046 64
 2081 2047 2082 2047 63
 2079 2048 2081 2046 64
 2081 2047 2083 2046 64
 2080 2047 2080 2047 63
 2081 2048 2082 2045 63
 2078 2047 2081 2047 63
 2081 2047 2083 2047 63
 2079 2048 2081 2046 64
 2081 2048 2083 2047 63
 2079 2047 2080 2045 64
 2081 2047 2083 2046 63
 2079 2047 2080 2046 64
 2081 2047 2083 2046 63
 2078 2048 2079 2046 64
 2080 2047 2081 2046 63
 2077 2047 2080 2045 64
 2079 2047 2083 2047 63
 2079 2048 2081 2044 64
 2081 2047 2083 2046 64
 2079 2048 2080 2047 64
 2081 2047 2082 2045 64
 2080 2048 2080 2046 64
 2080 2048 2083 2047 63
 2079 2046 2080 2046 64
 2081 2047 2082 2046 64
 2080 2047 2080 2046 64
 2080 2048 2083 2047 64
 2079 2047 2081 2047 64
 2080 2047 2083 2046 64
 2080 2048 2080 2047 64
 2081 2048 2082 2047 64
 2079 2047 2081 2046 64
 2081 2048 2083 2047 63
 2080 2047 2080 2046 64
 2080 2047 2082 2046 63
 2081 2048 2080 2047 63
 2080 2047 2082 2047 64
 2079 2047 2081 2047 63
 2081 2048 2082 2046 64
 2080 2048 2081 2046 63
 2080 2048 2082 2046 64
 2079 2047 2081 2047 63
 2081 2047 2082 2047 64
 2080 2047 2081 2047 64
 2081 2047 2082 2047 64
 2080 2047 2081 2046 63
 2080 2048 2082 2048 64
 2080 2047 2080 2046 63
 2080 2047 2082 2047 64
 2080 2048 2081 2047 63
 2080 2048 2082 2046 64
 2081 2048 2081 2046 63
 2080 2048 2081 2047 64
 2079 2048 2082 2047 63
 2078 2048 2080 2046 64
 2080 2048 2080 2048 64
 2078 2048 2080 2047 64
 2080 2047 2081 2046 63
 2078 2048 2081 2046 64
 2081 2048 2081 2045 63
 2080 2048 2082 2046 64
 2080 2047 2082 2046 63
 2080 2048 2081 2047 64
 2081 2048 2081 2046 63
 2079 2048 2082 2047 64
 2081 2047 2082 2047 63
 2079 2049 2083 2047 64
 2081 2048 2082 2047 63
 2079 2047 2081 2045 64
 2082 2048 2081 2048 63
 2079 2046 2081 2046 64
 2081 2047 2082 2047 63
 2080 2046 2080 2046 64
 2081 2048 2083 2047 63
 2079 2047 2081 2046 63
 2080 2047 2082 2046 63
 2078 2047 2082 2047 64
 2082 2047 2082 2046 63
 2080 2048 2080 2046 64
 2082 2048 2082 2046 63
 2080 2047 2081 2047 64
 2080 2048 2083 2046 63
 2080 2047 2080 2046 64
 2081 2048 2083 2048 63
 2079 2047 2081 2045 64
 2081 2047 2083 2047 63
 2079 2047 2081 2046 64
 2082 2048 2081 2046 63
 2079 2048 2080 2046 64
 2081 2048 2084 2047 63
 2079 2048 2080 2046 64
 2082 2047 2082 2047 63
 2080 2047 2081 2047 64
 2081 2047 2082 2046 63
 2079 2048 2080 2046 64
 2081 2048 2082 2046 63
 2079 2047 2078 2047 64
 2080 2047 2082 2046 63
 2078 2047 2079 2046 64
 2080 2048 2082 2046 63
 2080 2047 2080 2046 63
 2081 2048 2083 2046 63
 2078 2047 2081 2047 64
 2081 2048 2083 2047 63
 2079 2048 2080 2045 64
 2082 2048 2082 2046 63
 2079 2047 2081 2046 63
 2081 2048 2083 2047 63
 2080 2047 2080 2047 64
 2081 2047 2083 2047 63
 2079 2048 2081 2047 63
 2082 2048 2082 2048 63
 2080 2048 2080 2047 64
 2081 2046 2082 2046 63
 2079 2048 2080 2046 64
 2081 2048 2082 2047 63
 2079 2048 2081 2046 64
 2082 2048 2083 2046 63
 2079 2047 2080 2047 63
 2082 2047 2081 2046 64
 2080 2048 2079 2046 64
 2081 2049 2083 2046 63
 2079 2047 2080 2046 63
 2081 2048 2083 2047 64
 2080 2047 2080 2046 63
 2080 2048 2083 2047 63
 2079 2048 2081 2047 63
 2081 2048 2082 2047 63
 2080 2049 2080 2046 64
 2081 2048 2082 2045 63
 2080 2047 2081 2045 64
 2080 2047 2083 2045 63
 2081 2047 2080 2047 63
 2080 2048 2083 2045 64
 2079 2047 2080 2046 64
 2081 2048 2082 2047 64
 2079 2048 2081 2046 63
 2080 2048 2082 2047 63
 2079 2048 2078 2046 63
 2079 2048 2082 2047 64
 2079 2048 2080 2046 63
 2079 2047 2080 2046 64
 2080 2047 2079 2048 64
 2080 2046 2083 2046 64
 2081 2048 2081 2047 63
 2080 2046 2082 2046 64
 2080 2048 2081 2046 63
 2081 2047 2082 2047 63
 2081 2048 2081 2046 64
 2079 2048 2082 2046 64
 2079 2047 2082 2046 63
 2080 2048 2082 2046 64
 2081 2047 2080 2046 64
 2081 2048 2082 2046 64
 2080 2048 2081 2046 63
 2080 2047 2082 2046 64
 2080 2047 2082 2045 63
 2080 2047 2082 2046 64
 2081 2048 2081 2046 63
 2080 2048 2081 2046 64
 2081 2048 2082 2048 63
 2079 2048 2081 2047 64
 2080 2048 2082 2046 63
 2079 2046 2081 2046 64
 2081 2048 2082 2045 63
 2080 2048 2082 2046 64
 2081 2047 2083 2047 63
 2079 2048 2082 2046 64
 2081 2047 2082 2047 63
 2080 2048 2081 2047 64
 2080 2048 2082 2046 63
 2079 2048 2082 2048 63
 2081 2047 2082 2046 63
 2080 2047 2082 2046 64
 2081 2047 2082 2046 63
 2079 2047 2081 2046 64
 2081 2047 2083 2047 63
 2079 2047 2080 2046 64
 2082 2047 2082 2046 63
 2079 2047 2080 2046 64
 2080 2048 2081 2046 63
 2079 2048 2079 2048 63
 2081 2048 2081 2047 63
 2078 2048 2080 2047 64
 2082 2047 2082 2046 63
 2080 2047 2081 2047 64
 2081 2047 2082 2046 63
 2079 2048 2080 2047 64
 2081 2048 2082 2047 63
 2079 2047 2082 2047 64
 2081 2047 2082 2046 63
 2080 2048 2080 2047 64
 2081 2047 2083 2046 64
 2079 2047 2081 2047 64
 2082 2048 2082 2046 63
 2079 2047 2080 2046 63
 2082 2047 2083 2046 63
 2078 2048 2081 2046 64
 2082 2047 2083 2047 63
 2079 2047 2081 2046 64
 2082 2047 2083 2046 63
 2081 2048 2080 2047 63
 2081 2048 2083 2046 63
 2078 2047 2081 2048 64
 2081 2048 2082 2045 63
 2079 2047 2080 2047 64
 2082 2047 2082 2046 63
 2079 2047 2081 2046 64
 2081 2048 2083 2047 63
 2079 2047 2080 2046 64
 2081 2047 2083 2046 63
 2080 2048 2080 2046 63
 2081 2048 2083 2048 63
 2079 2048 2080 2046 63
 2081 2048 2083 2046 63
 2080 2046 2079 2045 64
 2080 2048 2083 2047 63
 2079 2047 2080 2047 64
 2080 2047 2084 2047 63
 2080 2047 2081 2046 63
 2080 2048 2083 2047 63
 2080 2047 2080 2045 63
 2079 2048 2082 2046 64
 2078 2047 2079 2046 63
 2078 2047 2081 2046 63
 2077 2047 2080 2046 64
 2082 2048 2083 2047 63
 2080 2047 2079 2047 63
 2081 2048 2082 2047 63
 2080 2048 2080 2046 63
 2081 2048 2082 2047 63
 2080 2047 2080 2046 63
 2080 2047 2083 2046 63
 2080 2047 2081 2047 63
 2080 2047 2083 2046 63
 2080 2047 2081 2046 63
 2081 2047 2082 2045 63
 2080 2048 2081 2046 63
 2080 2048 2082 2046 64
 2080 2048 2081 2047 63
 2080 2048 2083 2047 63
 2081 2048 2081 2048 63
 2081 2048 2083 2048 63
 2079 2047 2081 2047 64
 2081 2048 2083 2046 63
 2079 2046 2081 2045 63
 2082 2048 2082 2047 63
 2079 2046 2080 2045 64
 2082 2048 2083 2046 63
 2079 2047 2080 2046 64
 2081 2047 2083 2046 63
 2079 2047 2081 2047 63
 2082 2047 2082 2045 63
 2079 2047 2081 2046 64
 2081 2047 2082 2047 63
 2079 2048 2081 2047 64
 2080 2047 2082 2046 63
 2079 2047 2081 2047 64
 2082 2047 2083 2046 63
 2079 2047 2081 2045 64
 2081 2047 2084 2047 63
 2080 2047 2080 2047 64
 2082 2048 2083 2048 63
 2078 2048 2080 2045 63
 2079 2048 2082 2047 63
 2077 2048 2080 2046 63
 2080 2047 2082 2047 64
 2079 2047 2079 2046 64
 2081 2047 2083 2046 63
 2080 2048 2081 2047 64
 2080 2046 2082 2045 63
 2080 2048 2081 2046 64
 2081 2048 2082 2047 63
 2079 2047 2081 2046 63
 2081 2048 2083 2048 63
 2080 2048 2081 2046 63
 2081 2048 2083 2047 63
 2079 2048 2081 2046 63
 2081 2047 2083 2047 63
 2079 2048 2080 2046 64
 2082 2047 2082 2047 63
 2079 2048 2081 2048 63
 2080 2048 2083 2046 63
 2080 2048 2081 2047 63
 2080 2047 2083 2046 63
 2081 2047 2081 2047 63
 2080 2047 2083 2046 63
 2080 2047 2081 2048 64
 2080 2048 2082 2046 63
 2080 2048 2081 2047 63
 2080 2047 2083 2046 63
 2081 2048 2081 2047 63
 2081 2047 2082 2047 63
 2080 2048 2081 2047 63
 2081 2048 2082 2047 64
 2079 2047 2080 2046 63
 2079 2048 2083 2046 63
 2080 2047 2081 2046 63
 2081 2046 2082 2047 64
 2080 2047 2081 2047 63
 2080 2047 2082 2046 64
 2080 2047 2081 2046 63
 2080 2047 2082 2047 64
 2080 2048 2081 2046 63
 2079 2047 2082 2046 63
 2080 2047 2080 2047 63
 2078 2048 2081 2046 64
 2080 2047 2080 2046 63
 2078 2047 2082 2047 64
 2080 2047 2081 2045 63
 2079 2048 2082 2046 64
 2081 2047 2082 2047 63
 2079 2048 2083 2047 63
 2081 2047 2081 2046 63
 2080 2048 2083 2047 63
 2081 2048 2082 2046 63
 2079 2047 2082 2046 64
 2081 2047 2082 2046 63
 2080 2047 2082 2046 64
 2082 2048 2082 2046 63
 2079 2047 2081 2046 64
 2081 2048 2082 2047 63
 2078 2047 2081 2047 64
 2080 2048 2083 2047 63
 2079 2047 2082 2046 64
 2082 2047 2082 2046 63
 2079 2048 2082 2047 64
 2081 2047 2082 2045 63
 2079 2048 2081 2047 64
 2081 2046 2082 2045 63
 2080 2048 2080 2046 64
 2081 2048 2082 2046 63
 2079 2047 2081 2048 64
 2082 2047 2082 2047 63
 2079 2048 2081 2047 64
 2081 2047 2082 2046 63
 2079 2047 2081 2047 64
 2081 2048 2082 2047 63
 2079 2048 2081 2048 64
 2082 2048 2083 2047 63
 2079 2047 2081 2046 64
 2081 2047 2082 2046 63
 2080 2048 2080 2046 63
 2083 2047 2081 2046 63
 2079 2047 2082 2047 64
 2082 2047 2081 2045 63
 2079 2048 2081 2046 64
 2080 2048 2081 2046 63
 2078 2047 2080 2047 63
 2079 2047 2081 2046 63
 2078 2047 2080 2046 63
 2082 2047 2083 2047 63
 2080 2047 2080 2047 63
 2081 2047 2084 2047 63
 2079 2048 2080 2047 63
 2081 2048 2083 2046 63
 2078 2048 2081 2046 63
 2082 2047 2082 2047 63
 2080 2048 2080 2048 63
 2081 2048 2083 2046 63
 2079 2047 2081 2047 64
 2081 2046 2082 2046 63
 2079 2048 2081 2046 63
 2081 2048 2082 2046 64
 2080 2048 2080 2046 64
 2081 2046 2082 2048 63
 2079 2048 2081 2047 63
 2080 2048 2083 2046 63
 2079 2047 2081 2046 64
 2082 2047 2082 2047 63
 2079 2048 2081 2047 64
 2082 2048 2082 2047 64
 2080 2047 2080 2046 64
 2081 2047 2082 2046 63
 2079 2047 2081 2047 63
 2081 2048 2083 2047 63
 2081 2048 2080 2047 63
 2081 2047 2082 2046 63
 2080 2047 2080 2046 64
 2080 2046 2082 2046 63
 2080 2047 2080 2046 63
 2081 2047 2082 2047 63
 2080 2048 2081 2047 63
 2081 2048 2082 2047 63
 2080 2047 2080 2047 63
 2082 2047 2082 2046 64
 2080 2049 2081 2047 63
 2081 2047 2083 2047 63
 2079 2047 2080 2047 63
 2079 2047 2081 2046 64
 2078 2047 2080 2047 63
 2079 2047 2081 2047 63
 2079 2048 2080 2048 63
 2080 2048 2083 2046 64
 2080 2048 2081 2047 63
 2081 2047 2082 2046 64
 2081 2048 2080 2046 63
 2080 2047 2083 2047 63
 2080 2047 2082 2046 63
 2079 2046 2082 2045 63
 2081 2047 2081 2047 63
 2080 2047 2082 2046 64
 2079 2049 2081 2047 63
 2080 2047 2081 2047 63
 2081 2048 2080 2045 63
 2080 2048 2082 2046 64
 2080 2048 2082 2046 63
 2080 2048 2081 2047 63
 2080 2046 2081 2046 63
 2080 2047 2082 2045 63
 2081 2047 2082 2046 63
 2079 2047 2081 2047 64
 2081 2048 2082 2047 63
 2079 2046 2081 2046 63
 2081 2048 2082 2046 63
 2080 2048 2082 2046 64
 2082 2047 2081 2046 63
 2080 2048 2081 2046 64
 2082 2047 2082 2047 63
 2080 2048 2082 2046 63
 2081 2047 2082 2047 63
 2080 2047 2081 2046 64
 2081 2047 2082 2046 63
 2079 2047 2082 2047 64
 2082 2047 2082 2047 63
 2079 2047 2082 2047 64
 2082 2048 2082 2047 63
 2079 2047 2081 2047 64
 2081 2048 2082 2046 63
 2078 2048 2081 2046 64
 2080 2047 2081 2047 63
 2077 2047 2080 2045 64
 2080 2046 2081 2046 63
 2078 2048 2080 2047 64
 2082 2047 2082 2047 63
 2081 2048 2080 2046 63
 2082 2047 2082 2047 63
 2079 2048 2081 2047 64
 2081 2046 2082 2046 63
 2079 2047 2081 2046 64
 2082 2048 2082 2047 63
 2079 2046 2081 2046 64
 2081 2047 2083 2047 63
 2078 2047 2082 2046 64
 2082 2048 2083 2046 63
 2078 2048 2081 2046 63
 2081 2048 2083 2046 63
 2079 2046 2080 2047 64
 2080 2047 2084 2046 63
 2080 2047 2079 2046 64
 2081 2048 2083 2047 63
 2081 2046 2082 2046 63